File: documentation/exampledata/SandiaSLM50_3_asispowder.txt
Filename:	C:\Program Files\Pyris\Data\Mingear\2019 SLMs\SandiaSLM50_3_asispowder.dcd
Operator ID:	Mingear
Sample ID:	SLM 50.3 as is powder
Comment: 	Al with lid
Serial Number:
Data Collected:	11/21/2019 4:26:25 PM
Sample Weight:	60.200 mg
Display Weight:	60.200
Validation
Validated:	No
By:
Date:
Calibration Information
Filename:	C:\Program Files\Pyris\Calibrations\Indium 28Apr2017.dcc
Date/Time:
Initial Conditions
Temperature:	 110.00 °C
Y Initial:	20.00 mW
Sample Rate:	Standard
Baseline Filename:	C:\Program Files\Pyris\Data\Mingear\2019 SLMs\SandiaSLM50_3_BL.dcd
End Condition:	Go To Load
Total Points in Run:	5280
Method Steps:
Pre-Run Actions
Start the Run
	Action occurs Immediately
Switch the Gas to Nitrogen at 20.0 ml/min
	Action occurs Immediately
1)	Hold for 2.0 min at 110.00°C

2)	Cool from 110.00°C to -10.00°C at 10.00°C/min

3)	Hold for 2.0 min at -10.00°C

4)	Heat from -10.00°C to 110.00°C at 10.00°C/min

5)	Hold for 2.0 min at 110.00°C

6)	Cool from 110.00°C to -10.00°C at 5.00°C/min

7)	Hold for 2.0 min at -10.00°C

8)	Heat from -10.00°C to 150.00°C at 5.00°C/min

1) DSC Isothermal
	Time     	Unsubtracted	Baseline     	Program     	Sample     	Approx.
	          	Heat Flow     	Heat Flow     	Temperature	Temperature	Gas Flow
	0.000000	16.8549	0.000000	110	94.633	0.000000
	0.016667	-36.9511	0.000000	110	97.96	0.000000
	0.033333	-84.7292	0.000000	110	100.804	0.000000
	0.050000	-111.938	0.000000	110	102.903	0.000000
	0.066667	-143.786	0.000000	110	104.362	0.000000
	0.083333	-179.03	0.000000	110	105.355	0.000000
	0.100000	-211.411	0.000000	110	106.029	0.000000
	0.116667	-238.44	0.000000	110	106.49	0.000000
	0.133333	-260.499	0.000000	110	106.809	0.000000
	0.150000	-278.507	0.000000	110	107.031	0.000000
	0.166667	-293.154	0.000000	110	107.19	0.000000
	0.183333	-304.873	0.000000	110	107.304	0.000000
	0.200000	-313.969	0.000000	110	107.388	0.000000
	0.216667	-320.836	0.000000	110	107.447	0.000000
	0.233333	-325.907	0.000000	110	107.493	0.000000
	0.250000	-329.607	0.000000	110	107.525	0.000000
	0.266667	-332.288	0.000000	110	107.548	0.000000
	0.283333	-334.235	0.000000	110	107.566	0.000000
	0.300000	-335.648	0.000000	110	107.581	0.000000
	0.316667	-336.674	0.000000	110	107.591	0.000000
	0.333333	-337.421	0.000000	110	107.599	0.000000
	0.350000	-337.969	0.000000	110	107.604	0.000000
	0.366667	-338.368	0.000000	110	107.608	0.000000
	0.383333	-338.655	0.000000	110	107.612	0.000000
	0.400000	-338.867	0.000000	110	107.614	0.000000
	0.416667	-339.022	0.000000	110	107.617	0.000000
	0.433333	-339.132	0.000000	110	107.618	0.000000
	0.450000	-339.214	0.000000	110	107.619	0.000000
	0.466667	-339.278	0.000000	110	107.62	0.000000
	0.483333	-339.324	0.000000	110	107.621	0.000000
	0.500000	-339.354	0.000000	110	107.621	0.000000
	0.516667	-339.379	0.000000	110	107.623	0.000000
	0.533333	-339.396	0.000000	110	107.623	0.000000
	0.550000	-339.409	0.000000	110	107.623	0.000000
	0.566667	-339.413	0.000000	110	107.624	0.000000
	0.583333	-339.422	0.000000	110	107.624	0.000000
	0.600000	-339.424	0.000000	110	107.625	0.000000
	0.616667	-339.427	0.000000	110	107.626	0.000000
	0.633333	-339.426	0.000000	110	107.627	0.000000
	0.650000	-339.429	0.000000	110	107.627	0.000000
	0.666667	-339.427	0.000000	110	107.627	0.000000
	0.683333	-339.426	0.000000	110	107.627	0.000000
	0.700000	-339.426	0.000000	110	107.627	0.000000
	0.716667	-339.426	0.000000	110	107.627	0.000000
	0.733333	-339.425	0.000000	110	107.626	0.000000
	0.750000	-339.427	0.000000	110	107.626	0.000000
	0.766667	-339.425	0.000000	110	107.628	0.000000
	0.783333	-339.42	0.000000	110	107.628	0.000000
	0.800000	-339.419	0.000000	110	107.628	0.000000
	0.816667	-339.417	0.000000	110	107.628	0.000000
	0.833333	-339.418	0.000000	110	107.629	0.000000
	0.850000	-339.416	0.000000	110	107.63	0.000000
	0.866667	-339.413	0.000000	110	107.63	0.000000
	0.883333	-339.412	0.000000	110	107.629	0.000000
	0.900000	-339.409	0.000000	110	107.629	0.000000
	0.916667	-339.413	0.000000	110	107.629	0.000000
	0.933333	-339.414	0.000000	110	107.629	0.000000
	0.950000	-339.411	0.000000	110	107.629	0.000000
	0.966667	-339.41	0.000000	110	107.63	0.000000
	0.983333	-339.407	0.000000	110	107.629	0.000000
	1.000000	-339.403	0.000000	110	107.63	0.000000
	1.016667	-339.404	0.000000	110	107.63	0.000000
	1.033333	-339.404	0.000000	110	107.633	0.000000
	1.050000	-339.405	0.000000	110	107.633	0.000000
	1.066667	-339.402	0.000000	110	107.632	0.000000
	1.083333	-339.398	0.000000	110	107.633	0.000000
	1.100000	-339.399	0.000000	110	107.634	0.000000
	1.116667	-339.399	0.000000	110	107.632	0.000000
	1.133333	-339.397	0.000000	110	107.633	0.000000
	1.150000	-339.395	0.000000	110	107.632	0.000000
	1.166667	-339.396	0.000000	110	107.632	0.000000
	1.183333	-339.396	0.000000	110	107.634	0.000000
	1.200000	-339.394	0.000000	110	107.634	0.000000
	1.216667	-339.394	0.000000	110	107.635	0.000000
	1.233333	-339.393	0.000000	110	107.635	0.000000
	1.250000	-339.389	0.000000	110	107.635	0.000000
	1.266667	-339.391	0.000000	110	107.636	0.000000
	1.283333	-339.392	0.000000	110	107.636	0.000000
	1.300000	-339.39	0.000000	110	107.636	0.000000
	1.316667	-339.388	0.000000	110	107.636	0.000000
	1.333333	-339.385	0.000000	110	107.636	0.000000
	1.350000	-339.388	0.000000	110	107.636	0.000000
	1.366667	-339.39	0.000000	110	107.637	0.000000
	1.383333	-339.388	0.000000	110	107.637	0.000000
	1.400000	-339.385	0.000000	110	107.637	0.000000
	1.416667	-339.384	0.000000	110	107.637	0.000000
	1.433333	-339.384	0.000000	110	107.637	0.000000
	1.450000	-339.38	0.000000	110	107.638	0.000000
	1.466667	-339.38	0.000000	110	107.637	0.000000
	1.483333	-339.383	0.000000	110	107.637	0.000000
	1.500000	-339.385	0.000000	110	107.637	0.000000
	1.516667	-339.384	0.000000	110	107.637	0.000000
	1.533333	-339.383	0.000000	110	107.638	0.000000
	1.550000	-339.381	0.000000	110	107.638	0.000000
	1.566667	-339.377	0.000000	110	107.639	0.000000
	1.583333	-339.376	0.000000	110	107.638	0.000000
	1.600000	-339.379	0.000000	110	107.638	0.000000
	1.616667	-339.38	0.000000	110	107.639	0.000000
	1.633333	-339.379	0.000000	110	107.64	0.000000
	1.650000	-339.376	0.000000	110	107.639	0.000000
	1.666667	-339.377	0.000000	110	107.639	0.000000
	1.683333	-339.377	0.000000	110	107.638	0.000000
	1.700000	-339.376	0.000000	110	107.639	0.000000
	1.716667	-339.376	0.000000	110	107.639	0.000000
	1.733333	-339.375	0.000000	110	107.639	0.000000
	1.750000	-339.374	0.000000	110	107.639	0.000000
	1.766667	-339.374	0.000000	110	107.638	0.000000
	1.783333	-339.374	0.000000	110	107.638	0.000000
	1.800000	-339.371	0.000000	110	107.639	0.000000
	1.816667	-339.371	0.000000	110	107.638	0.000000
	1.833333	-339.373	0.000000	110	107.639	0.000000
	1.850000	-339.375	0.000000	110	107.638	0.000000
	1.866667	-339.375	0.000000	110	107.639	0.000000
	1.883333	-339.375	0.000000	110	107.639	0.000000
	1.900000	-339.374	0.000000	110	107.639	0.000000
	1.916667	-339.372	0.000000	110	107.639	0.000000
	1.933333	-339.371	0.000000	110	107.64	0.000000
	1.950000	-339.371	0.000000	110	107.64	0.000000
	1.966667	-339.37	0.000000	110	107.641	0.000000
	1.983333	-339.369	0.000000	110	107.64	0.000000
2) DSC Temperature Scan
	2.000000	-339.425	0.000000	109.995	107.639	0.000000
	2.016667	-339.191	0.000000	109.829	107.639	0.000000
	2.033333	-339.451	0.234208	109.662	107.623	0.000000
	2.050000	-339.91	-0.009439	109.495	107.578	0.000000
	2.066667	-340.343	-0.295445	109.329	107.504	0.000000
	2.083333	-340.948	-0.194918	109.162	107.401	0.000000
	2.100000	-341.711	0.102179	108.995	107.283	0.000000
	2.116667	-342.529	0.426058	108.829	107.148	0.000000
	2.133333	-343.291	0.694247	108.662	107.004	0.000000
	2.150000	-343.951	0.886098	108.495	106.853	0.000000
	2.166667	-344.489	1.025561	108.329	106.696	0.000000
	2.183333	-344.919	1.124672	108.162	106.537	0.000000
	2.200000	-345.246	1.190037	107.995	106.374	0.000000
	2.216667	-345.485	1.240419	107.829	106.211	0.000000
	2.233333	-345.664	1.285491	107.662	106.046	0.000000
	2.250000	-345.798	1.322185	107.495	105.881	0.000000
	2.266667	-345.886	1.356166	107.329	105.714	0.000000
	2.283333	-345.947	1.386961	107.162	105.546	0.000000
	2.300000	-345.985	1.417166	106.995	105.38	0.000000
	2.316667	-346.008	1.447372	106.829	105.212	0.000000
	2.333333	-346.013	1.482178	106.662	105.044	0.000000
	2.350000	-346.014	1.510496	106.495	104.875	0.000000
	2.366667	-346.002	1.534683	106.329	104.707	0.000000
	2.383333	-345.993	1.564889	106.162	104.54	0.000000
	2.400000	-345.975	1.591672	105.995	104.371	0.000000
	2.416667	-345.951	1.619046	105.829	104.203	0.000000
	2.433333	-345.93	1.649369	105.662	104.036	0.000000
	2.450000	-345.907	1.679574	105.495	103.868	0.000000
	2.466667	-345.881	1.706357	105.329	103.701	0.000000
	2.483333	-345.853	1.733495	105.162	103.533	0.000000
	2.500000	-345.828	1.763582	104.995	103.364	0.000000
	2.516667	-345.798	1.788950	104.829	103.196	0.000000
	2.533333	-345.771	1.817149	104.662	103.029	0.000000
	2.550000	-345.746	1.843815	104.495	102.86	0.000000
	2.566667	-345.717	1.871778	104.329	102.692	0.000000
	2.583333	-345.683	1.902455	104.162	102.523	0.000000
	2.600000	-345.657	1.936200	103.995	102.355	0.000000
	2.616667	-345.626	1.963220	103.829	102.188	0.000000
	2.633333	-345.595	1.984812	103.662	102.019	0.000000
	2.650000	-345.571	2.013247	103.495	101.852	0.000000
	2.666667	-345.546	2.041918	103.329	101.684	0.000000
	2.683333	-345.514	2.075427	103.162	101.514	0.000000
	2.700000	-345.488	2.102683	102.995	101.346	0.000000
	2.716667	-345.463	2.130646	102.829	101.178	0.000000
	2.733333	-345.433	2.156014	102.662	101.01	0.000000
	2.750000	-345.398	2.184921	102.495	100.842	0.000000
	2.766667	-345.371	2.217250	102.329	100.673	0.000000
	2.783333	-345.344	2.241556	102.162	100.505	0.000000
	2.800000	-345.316	2.269991	101.995	100.337	0.000000
	2.816667	-345.286	2.298544	101.829	100.168	0.000000
	2.833333	-345.256	2.325210	101.662	100	0.000000
	2.850000	-345.231	2.355297	101.495	99.831	0.000000
	2.866667	-345.202	2.383851	101.329	99.663	0.000000
	2.883333	-345.181	2.412994	101.162	99.495	0.000000
	2.900000	-345.146	2.440603	100.995	99.327	0.000000
	2.916667	-345.114	2.469747	100.829	99.157	0.000000
	2.933333	-345.091	2.500070	100.662	98.989	0.000000
	2.950000	-345.057	2.526853	100.495	98.821	0.000000
	2.966667	-345.027	2.555525	100.329	98.653	0.000000
	2.983333	-345.001	2.583016	100.162	98.484	0.000000
	3.000000	-344.972	2.609328	99.995	98.316	0.000000
	3.016667	-344.942	2.637881	99.829	98.148	0.000000
	3.033333	-344.914	2.667850	99.662	97.98	0.000000
	3.050000	-344.888	2.694752	99.495	97.813	0.000000
	3.066667	-344.855	2.716934	99.329	97.644	0.000000
	3.083333	-344.824	2.745605	99.162	97.476	0.000000
	3.100000	-344.795	2.773568	98.995	97.308	0.000000
	3.116667	-344.769	2.803184	98.829	97.14	0.000000
	3.133333	-344.744	2.834451	98.662	96.971	0.000000
	3.150000	-344.718	2.862414	98.495	96.804	0.000000
	3.166667	-344.687	2.886130	98.329	96.636	0.000000
	3.183333	-344.658	2.919521	98.162	96.468	0.000000
	3.200000	-344.634	2.947012	97.995	96.299	0.000000
	3.216667	-344.607	2.974032	97.829	96.13	0.000000
	3.233333	-344.576	3.003529	97.662	95.962	0.000000
	3.250000	-344.548	3.027481	97.495	95.794	0.000000
	3.266667	-344.52	3.058630	97.329	95.626	0.000000
	3.283333	-344.489	3.088245	97.162	95.457	0.000000
	3.300000	-344.465	3.117860	96.995	95.29	0.000000
	3.316667	-344.437	3.141104	96.829	95.121	0.000000
	3.333333	-344.408	3.168950	96.662	94.953	0.000000
	3.350000	-344.375	3.200453	96.495	94.785	0.000000
	3.366667	-344.347	3.224168	96.329	94.616	0.000000
	3.383333	-344.317	3.252958	96.162	94.448	0.000000
	3.400000	-344.288	3.280685	95.995	94.279	0.000000
	3.416667	-344.263	3.311244	95.829	94.112	0.000000
	3.433333	-344.235	3.335668	95.662	93.944	0.000000
	3.450000	-344.205	3.370239	95.495	93.775	0.000000
	3.466667	-344.177	3.393365	95.329	93.607	0.000000
	3.483333	-344.15	3.418496	95.162	93.438	0.000000
	3.500000	-344.12	3.446932	94.995	93.27	0.000000
	3.516667	-344.098	3.473597	94.829	93.101	0.000000
	3.533333	-344.068	3.500499	94.662	92.932	0.000000
	3.550000	-344.036	3.528580	94.495	92.764	0.000000
	3.566667	-344.011	3.561735	94.329	92.596	0.000000
	3.583333	-343.99	3.587693	94.162	92.428	0.000000
	3.600000	-343.959	3.613768	93.995	92.259	0.000000
	3.616667	-343.932	3.642322	93.829	92.09	0.000000
	3.633333	-343.911	3.669931	93.662	91.921	0.000000
	3.650000	-343.878	3.699428	93.495	91.753	0.000000
	3.666667	-343.851	3.727274	93.329	91.585	0.000000
	3.683333	-343.828	3.753467	93.162	91.417	0.000000
	3.700000	-343.795	3.780133	92.995	91.248	0.000000
	3.716667	-343.766	3.806680	92.829	91.08	0.000000
	3.733333	-343.745	3.834644	92.662	90.912	0.000000
	3.750000	-343.714	3.860247	92.495	90.743	0.000000
	3.766667	-343.684	3.890924	92.329	90.575	0.000000
	3.783333	-343.655	3.918534	92.162	90.406	0.000000
	3.800000	-343.627	3.943076	91.995	90.238	0.000000
	3.816667	-343.598	3.968561	91.829	90.069	0.000000
	3.833333	-343.571	4.002306	91.662	89.901	0.000000
	3.850000	-343.55	4.022364	91.495	89.732	0.000000
	3.866667	-343.526	4.051390	91.329	89.563	0.000000
	3.883333	-343.499	4.080061	91.162	89.393	0.000000
	3.900000	-343.47	4.107906	90.995	89.223	0.000000
	3.916667	-343.447	4.139763	90.829	89.054	0.000000
	3.933333	-343.416	4.167609	90.662	88.884	0.000000
	3.950000	-343.395	4.196398	90.495	88.716	0.000000
	3.966667	-343.364	4.222710	90.329	88.549	0.000000
	3.983333	-343.345	4.245600	90.162	88.379	0.000000
	4.000000	-343.312	4.277457	89.995	88.211	0.000000
	4.016667	-343.288	4.304358	89.829	88.044	0.000000
	4.033333	-343.256	4.329962	89.662	87.875	0.000000
	4.050000	-343.233	4.353206	89.495	87.707	0.000000
	4.066667	-343.205	4.384709	89.329	87.538	0.000000
	4.083333	-343.182	4.408542	89.162	87.37	0.000000
	4.100000	-343.154	4.434972	88.995	87.201	0.000000
	4.116667	-343.123	4.461873	88.829	87.032	0.000000
	4.133333	-343.093	4.490663	88.662	86.864	0.000000
	4.150000	-343.063	4.518744	88.495	86.695	0.000000
	4.166667	-343.035	4.541044	88.329	86.527	0.000000
	4.183333	-343.005	4.567592	88.162	86.359	0.000000
	4.200000	-342.987	4.598387	87.995	86.191	0.000000
	4.216667	-342.955	4.626940	87.829	86.022	0.000000
	4.233333	-342.928	4.648060	87.662	85.854	0.000000
	4.250000	-342.902	4.672484	87.495	85.686	0.000000
	4.266667	-342.874	4.698087	87.329	85.518	0.000000
	4.283333	-342.849	4.726523	87.162	85.349	0.000000
	4.300000	-342.824	4.752008	86.995	85.181	0.000000
	4.316667	-342.8	4.779028	86.829	85.012	0.000000
	4.333333	-342.776	4.806401	86.662	84.844	0.000000
	4.350000	-342.744	4.834129	86.495	84.675	0.000000
	4.366667	-342.718	4.855131	86.329	84.507	0.000000
	4.383333	-342.695	4.879673	86.162	84.339	0.000000
	4.400000	-342.671	4.906574	85.995	84.171	0.000000
	4.416667	-342.646	4.933594	85.829	84.002	0.000000
	4.433333	-342.621	4.960141	85.662	83.834	0.000000
	4.450000	-342.592	4.985627	85.495	83.664	0.000000
	4.466667	-342.571	5.013708	85.329	83.495	0.000000
	4.483333	-342.548	5.043323	85.162	83.328	0.000000
	4.500000	-342.521	5.067039	84.995	83.159	0.000000
	4.516667	-342.495	5.094295	84.829	82.99	0.000000
	4.533333	-342.471	5.121314	84.662	82.822	0.000000
	4.550000	-342.444	5.144204	84.495	82.652	0.000000
	4.566667	-342.415	5.173347	84.329	82.484	0.000000
	4.583333	-342.393	5.202373	84.162	82.316	0.000000
	4.600000	-342.368	5.224673	83.995	82.147	0.000000
	4.616667	-342.34	5.252990	83.829	81.979	0.000000
	4.633333	-342.316	5.278004	83.662	81.811	0.000000
	4.650000	-342.292	5.303961	83.495	81.642	0.000000
	4.666667	-342.269	5.330981	83.329	81.475	0.000000
	4.683333	-342.241	5.360242	83.162	81.304	0.000000
	4.700000	-342.211	5.382306	82.995	81.135	0.000000
	4.716667	-342.186	5.412275	82.829	80.967	0.000000
	4.733333	-342.164	5.440828	82.662	80.798	0.000000
	4.750000	-342.137	5.466078	82.495	80.63	0.000000
	4.766667	-342.11	5.493334	82.329	80.462	0.000000
	4.783333	-342.083	5.519055	82.162	80.293	0.000000
	4.800000	-342.06	5.543715	81.995	80.124	0.000000
	4.816667	-342.034	5.565661	81.829	79.956	0.000000
	4.833333	-342.013	5.593978	81.662	79.787	0.000000
	4.850000	-341.987	5.623122	81.495	79.619	0.000000
	4.866667	-341.96	5.649787	81.329	79.451	0.000000
	4.883333	-341.937	5.674211	81.162	79.282	0.000000
	4.900000	-341.911	5.698753	80.995	79.113	0.000000
	4.916667	-341.885	5.724946	80.829	78.945	0.000000
	4.933333	-341.863	5.753971	80.662	78.777	0.000000
	4.950000	-341.841	5.780519	80.495	78.608	0.000000
	4.966667	-341.815	5.802583	80.329	78.439	0.000000
	4.983333	-341.788	5.830664	80.162	78.271	0.000000
	5.000000	-341.764	5.859454	79.995	78.103	0.000000
	5.016667	-341.738	5.886709	79.829	77.934	0.000000
	5.033333	-341.713	5.910897	79.662	77.766	0.000000
	5.050000	-341.689	5.936146	79.495	77.597	0.000000
	5.066667	-341.663	5.964582	79.329	77.429	0.000000
	5.083333	-341.636	5.990421	79.162	77.261	0.000000
	5.100000	-341.611	6.014845	78.995	77.091	0.000000
	5.116667	-341.589	6.039741	78.829	76.923	0.000000
	5.133333	-341.564	6.068530	78.662	76.754	0.000000
	5.150000	-341.546	6.095432	78.495	76.586	0.000000
	5.166667	-341.518	6.118086	78.329	76.417	0.000000
	5.183333	-341.491	6.143925	78.162	76.249	0.000000
	5.200000	-341.469	6.174248	77.995	76.081	0.000000
	5.216667	-341.447	6.201150	77.829	75.912	0.000000
	5.233333	-341.421	6.221562	77.662	75.743	0.000000
	5.250000	-341.396	6.245396	77.495	75.574	0.000000
	5.266667	-341.376	6.273713	77.329	75.406	0.000000
	5.283333	-341.354	6.300261	77.162	75.238	0.000000
	5.300000	-341.332	6.324920	76.995	75.069	0.000000
	5.316667	-341.307	6.353710	76.829	74.902	0.000000
	5.333333	-341.288	6.378841	76.662	74.732	0.000000
	5.350000	-341.264	6.407749	76.495	74.564	0.000000
	5.366667	-341.244	6.435476	76.329	74.395	0.000000
	5.383333	-341.223	6.460018	76.162	74.227	0.000000
	5.400000	-341.196	6.483616	75.995	74.057	0.000000
	5.416667	-341.171	6.509219	75.829	73.888	0.000000
	5.433333	-341.151	6.534351	75.662	73.719	0.000000
	5.450000	-341.13	6.561252	75.495	73.551	0.000000
	5.466667	-341.109	6.587210	75.329	73.381	0.000000
	5.483333	-341.086	6.615055	75.162	73.213	0.000000
	5.500000	-341.065	6.638653	74.995	73.044	0.000000
	5.516667	-341.042	6.662841	74.829	72.875	0.000000
	5.533333	-341.019	6.689742	74.662	72.707	0.000000
	5.550000	-340.998	6.714756	74.495	72.538	0.000000
	5.566667	-340.976	6.740714	74.329	72.369	0.000000
	5.583333	-340.957	6.768559	74.162	72.2	0.000000
	5.600000	-340.939	6.794045	73.995	72.032	0.000000
	5.616667	-340.92	6.819058	73.829	71.864	0.000000
	5.633333	-340.899	6.847376	73.662	71.695	0.000000
	5.650000	-340.884	6.874395	73.495	71.526	0.000000
	5.666667	-340.864	6.895397	73.329	71.357	0.000000
	5.683333	-340.844	6.920647	73.162	71.189	0.000000
	5.700000	-340.827	6.946487	72.995	71.02	0.000000
	5.716667	-340.81	6.972444	72.829	70.851	0.000000
	5.733333	-340.795	6.999346	72.662	70.681	0.000000
	5.750000	-340.779	7.026365	72.495	70.513	0.000000
	5.766667	-340.761	7.049491	72.329	70.343	0.000000
	5.783333	-340.743	7.075921	72.162	70.173	0.000000
	5.800000	-340.73	7.102232	71.995	70.005	0.000000
	5.816667	-340.716	7.128544	71.829	69.835	0.000000
	5.833333	-340.701	7.153203	71.662	69.667	0.000000
	5.850000	-340.684	7.180341	71.495	69.498	0.000000
	5.866667	-340.672	7.202405	71.329	69.33	0.000000
	5.883333	-340.662	7.227418	71.162	69.161	0.000000
	5.900000	-340.646	7.255264	70.995	68.992	0.000000
	5.916667	-340.638	7.283109	70.829	68.824	0.000000
	5.933333	-340.627	7.304347	70.662	68.656	0.000000
	5.950000	-340.616	7.332547	70.495	68.487	0.000000
	5.966667	-340.61	7.359566	70.329	68.318	0.000000
	5.983333	-340.606	7.385760	70.162	68.15	0.000000
	6.000000	-340.598	7.406290	69.995	67.982	0.000000
	6.016667	-340.595	7.431186	69.829	67.813	0.000000
	6.033333	-340.589	7.455491	69.662	67.645	0.000000
	6.050000	-340.586	7.482747	69.495	67.477	0.000000
	6.066667	-340.587	7.509176	69.329	67.308	0.000000
	6.083333	-340.589	7.533246	69.162	67.14	0.000000
	6.100000	-340.59	7.559558	68.995	66.972	0.000000
	6.116667	-340.595	7.586459	68.829	66.803	0.000000
	6.133333	-340.602	7.611827	68.662	66.635	0.000000
	6.150000	-340.609	7.635071	68.495	66.466	0.000000
	6.166667	-340.622	7.661972	68.329	66.298	0.000000
	6.183333	-340.637	7.687222	68.162	66.129	0.000000
	6.200000	-340.651	7.714359	67.995	65.96	0.000000
	6.216667	-340.666	7.741143	67.829	65.79	0.000000
	6.233333	-340.683	7.763797	67.662	65.622	0.000000
	6.250000	-340.698	7.787984	67.495	65.454	0.000000
	6.266667	-340.72	7.812880	67.329	65.285	0.000000
	6.283333	-340.743	7.839664	67.162	65.116	0.000000
	6.300000	-340.771	7.865975	66.995	64.948	0.000000
	6.316667	-340.798	7.888629	66.829	64.779	0.000000
	6.333333	-340.828	7.912581	66.662	64.61	0.000000
	6.350000	-340.858	7.939010	66.495	64.441	0.000000
	6.366667	-340.888	7.963552	66.329	64.273	0.000000
	6.383333	-340.924	7.988212	66.162	64.104	0.000000
	6.400000	-340.962	8.011102	65.995	63.935	0.000000
	6.416667	-341	8.037177	65.829	63.767	0.000000
	6.433333	-341.041	8.066321	65.662	63.597	0.000000
	6.450000	-341.083	8.090862	65.495	63.429	0.000000
	6.466667	-341.13	8.114814	65.329	63.26	0.000000
	6.483333	-341.175	8.142070	65.162	63.093	0.000000
	6.500000	-341.225	8.166965	64.995	62.924	0.000000
	6.516667	-341.27	8.188321	64.829	62.755	0.000000
	6.533333	-341.321	8.211565	64.662	62.587	0.000000
	6.550000	-341.374	8.238585	64.495	62.419	0.000000
	6.566667	-341.434	8.261002	64.329	62.25	0.000000
	6.583333	-341.491	8.288494	64.162	62.08	0.000000
	6.600000	-341.548	8.313980	63.995	61.911	0.000000
	6.616667	-341.61	8.337813	63.829	61.743	0.000000
	6.633333	-341.666	8.364597	63.662	61.574	0.000000
	6.650000	-341.727	8.391262	63.495	61.406	0.000000
	6.666667	-341.792	8.414152	63.329	61.238	0.000000
	6.683333	-341.857	8.439874	63.162	61.07	0.000000
	6.700000	-341.922	8.466185	62.995	60.902	0.000000
	6.716667	-341.984	8.491081	62.829	60.734	0.000000
	6.733333	-342.049	8.514089	62.662	60.566	0.000000
	6.750000	-342.117	8.539339	62.495	60.398	0.000000
	6.766667	-342.184	8.563526	62.329	60.23	0.000000
	6.783333	-342.253	8.588304	62.162	60.061	0.000000
	6.800000	-342.321	8.611902	61.995	59.892	0.000000
	6.816667	-342.392	8.636562	61.829	59.723	0.000000
	6.833333	-342.459	8.661457	61.662	59.554	0.000000
	6.850000	-342.528	8.687179	61.495	59.387	0.000000
	6.866667	-342.598	8.711249	61.329	59.219	0.000000
	6.883333	-342.676	8.736970	61.162	59.052	0.000000
	6.900000	-342.752	8.760450	60.995	58.884	0.000000
	6.916667	-342.833	8.784638	60.829	58.716	0.000000
	6.933333	-342.915	8.807410	60.662	58.548	0.000000
	6.950000	-343.002	8.832187	60.495	58.378	0.000000
	6.966667	-343.096	8.858499	60.329	58.209	0.000000
	6.983333	-343.194	8.883631	60.162	58.042	0.000000
	7.000000	-343.295	8.909470	59.995	57.874	0.000000
	7.016667	-343.4	8.933540	59.829	57.706	0.000000
	7.033333	-343.514	8.956312	59.662	57.538	0.000000
	7.050000	-343.62	8.979556	59.495	57.368	0.000000
	7.066667	-343.723	9.006811	59.329	57.2	0.000000
	7.083333	-343.824	9.032533	59.162	57.032	0.000000
	7.100000	-343.916	9.056839	58.995	56.863	0.000000
	7.116667	-343.989	9.080672	58.829	56.694	0.000000
	7.133333	-344.051	9.107456	58.662	56.525	0.000000
	7.150000	-344.094	9.131172	58.495	56.357	0.000000
	7.166667	-344.116	9.155123	58.329	56.189	0.000000
	7.183333	-344.132	9.181317	58.162	56.02	0.000000
	7.200000	-344.138	9.203499	57.995	55.852	0.000000
	7.216667	-344.129	9.226507	57.829	55.685	0.000000
	7.233333	-344.112	9.250577	57.662	55.515	0.000000
	7.250000	-344.092	9.274646	57.495	55.347	0.000000
	7.266667	-344.062	9.296828	57.329	55.177	0.000000
	7.283333	-344.035	9.324556	57.162	55.009	0.000000
	7.300000	-344.003	9.348035	56.995	54.84	0.000000
	7.316667	-343.969	9.373757	56.829	54.67	0.000000
	7.333333	-343.936	9.395821	56.662	54.502	0.000000
	7.350000	-343.902	9.422015	56.495	54.334	0.000000
	7.366667	-343.87	9.445966	56.329	54.165	0.000000
	7.383333	-343.838	9.472632	56.162	53.996	0.000000
	7.400000	-343.811	9.496112	55.995	53.827	0.000000
	7.416667	-343.782	9.517232	55.829	53.659	0.000000
	7.433333	-343.755	9.542127	55.662	53.491	0.000000
	7.450000	-343.732	9.568557	55.495	53.323	0.000000
	7.466667	-343.709	9.592509	55.329	53.153	0.000000
	7.483333	-343.686	9.618702	55.162	52.984	0.000000
	7.500000	-343.669	9.641828	54.995	52.815	0.000000
	7.516667	-343.648	9.663892	54.829	52.647	0.000000
	7.533333	-343.631	9.685130	54.662	52.479	0.000000
	7.550000	-343.623	9.711442	54.495	52.31	0.000000
	7.566667	-343.614	9.735983	54.329	52.141	0.000000
	7.583333	-343.599	9.757221	54.162	51.972	0.000000
	7.600000	-343.587	9.783887	53.995	51.805	0.000000
	7.616667	-343.579	9.808547	53.829	51.636	0.000000
	7.633333	-343.579	9.830729	53.662	51.468	0.000000
	7.650000	-343.575	9.857394	53.495	51.3	0.000000
	7.666667	-343.569	9.883116	53.329	51.129	0.000000
	7.683333	-343.573	9.906124	53.162	50.959	0.000000
	7.700000	-343.574	9.927008	52.995	50.79	0.000000
	7.716667	-343.575	9.949780	52.829	50.622	0.000000
	7.733333	-343.579	9.973849	52.662	50.453	0.000000
	7.750000	-343.584	9.997093	52.495	50.285	0.000000
	7.766667	-343.592	10.0235	52.329	50.118	0.000000
	7.783333	-343.607	10.0479	52.162	49.95	0.000000
	7.800000	-343.617	10.0712	51.995	49.782	0.000000
	7.816667	-343.631	10.0946	51.829	49.614	0.000000
	7.833333	-343.65	10.1191	51.662	49.446	0.000000
	7.850000	-343.669	10.14	51.495	49.277	0.000000
	7.866667	-343.687	10.1653	51.329	49.108	0.000000
	7.883333	-343.714	10.1917	51.162	48.939	0.000000
	7.900000	-343.742	10.2138	50.995	48.771	0.000000
	7.916667	-343.775	10.2357	50.829	48.603	0.000000
	7.933333	-343.813	10.2613	50.662	48.435	0.000000
	7.950000	-343.854	10.2862	50.495	48.266	0.000000
	7.966667	-343.898	10.3088	50.329	48.098	0.000000
	7.983333	-343.946	10.3316	50.162	47.931	0.000000
	8.000000	-343.998	10.358	49.995	47.763	0.000000
	8.016667	-344.056	10.3823	49.829	47.595	0.000000
	8.033333	-344.12	10.405	49.662	47.427	0.000000
	8.050000	-344.186	10.4249	49.495	47.259	0.000000
	8.066667	-344.257	10.4496	49.329	47.09	0.000000
	8.083333	-344.335	10.4755	49.162	46.922	0.000000
	8.100000	-344.417	10.4974	48.995	46.753	0.000000
	8.116667	-344.502	10.5192	48.829	46.585	0.000000
	8.133333	-344.591	10.544	48.662	46.417	0.000000
	8.150000	-344.684	10.5691	48.495	46.25	0.000000
	8.166667	-344.78	10.5914	48.329	46.081	0.000000
	8.183333	-344.877	10.6137	48.162	45.914	0.000000
	8.200000	-344.979	10.6378	47.995	45.746	0.000000
	8.216667	-345.08	10.661	47.829	45.578	0.000000
	8.233333	-345.179	10.6819	47.662	45.411	0.000000
	8.250000	-345.283	10.7075	47.495	45.242	0.000000
	8.266667	-345.389	10.7339	47.329	45.074	0.000000
	8.283333	-345.5	10.7566	47.162	44.905	0.000000
	8.300000	-345.605	10.7792	46.995	44.737	0.000000
	8.316667	-345.715	10.8027	46.829	44.568	0.000000
	8.333333	-345.825	10.8244	46.662	44.4	0.000000
	8.350000	-345.935	10.8477	46.495	44.231	0.000000
	8.366667	-346.047	10.8746	46.329	44.063	0.000000
	8.383333	-346.156	10.8975	46.162	43.896	0.000000
	8.400000	-346.267	10.9209	45.995	43.727	0.000000
	8.416667	-346.382	10.9418	45.829	43.56	0.000000
	8.433333	-346.495	10.9622	45.662	43.393	0.000000
	8.450000	-346.604	10.9853	45.495	43.224	0.000000
	8.466667	-346.716	11.0139	45.329	43.056	0.000000
	8.483333	-346.829	11.036	45.162	42.889	0.000000
	8.500000	-346.938	11.0569	44.995	42.72	0.000000
	8.516667	-347.047	11.08	44.829	42.553	0.000000
	8.533333	-347.159	11.1036	44.662	42.386	0.000000
	8.550000	-347.269	11.1286	44.495	42.218	0.000000
	8.566667	-347.38	11.1527	44.329	42.05	0.000000
	8.583333	-347.492	11.1753	44.162	41.882	0.000000
	8.600000	-347.6	11.1949	43.995	41.715	0.000000
	8.616667	-347.713	11.2217	43.829	41.547	0.000000
	8.633333	-347.828	11.2413	43.662	41.379	0.000000
	8.650000	-347.939	11.2634	43.495	41.212	0.000000
	8.666667	-348.05	11.2893	43.329	41.046	0.000000
	8.683333	-348.164	11.3131	43.162	40.877	0.000000
	8.700000	-348.276	11.3349	42.995	40.709	0.000000
	8.716667	-348.394	11.3605	42.829	40.542	0.000000
	8.733333	-348.515	11.3844	42.662	40.376	0.000000
	8.750000	-348.629	11.4035	42.495	40.208	0.000000
	8.766667	-348.747	11.4262	42.329	40.04	0.000000
	8.783333	-348.875	11.4482	42.162	39.873	0.000000
	8.800000	-349.005	11.4685	41.995	39.704	0.000000
	8.816667	-349.133	11.4928	41.829	39.536	0.000000
	8.833333	-349.264	11.5183	41.662	39.369	0.000000
	8.850000	-349.399	11.5423	41.495	39.202	0.000000
	8.866667	-349.538	11.5653	41.329	39.035	0.000000
	8.883333	-349.682	11.5899	41.162	38.868	0.000000
	8.900000	-349.831	11.6111	40.995	38.7	0.000000
	8.916667	-349.982	11.6304	40.829	38.532	0.000000
	8.933333	-350.14	11.6527	40.662	38.364	0.000000
	8.950000	-350.305	11.6777	40.495	38.197	0.000000
	8.966667	-350.481	11.6997	40.329	38.029	0.000000
	8.983333	-350.658	11.7224	40.162	37.863	0.000000
	9.000000	-350.845	11.7452	39.995	37.696	0.000000
	9.016667	-351.036	11.7698	39.829	37.528	0.000000
	9.033333	-351.233	11.7915	39.662	37.362	0.000000
	9.050000	-351.437	11.8137	39.495	37.194	0.000000
	9.066667	-351.651	11.8365	39.329	37.026	0.000000
	9.083333	-351.872	11.8592	39.162	36.86	0.000000
	9.100000	-352.098	11.8837	38.995	36.692	0.000000
	9.116667	-352.336	11.9078	38.829	36.524	0.000000
	9.133333	-352.575	11.9279	38.662	36.357	0.000000
	9.150000	-352.823	11.9505	38.495	36.189	0.000000
	9.166667	-353.078	11.9733	38.329	36.022	0.000000
	9.183333	-353.332	11.9926	38.162	35.856	0.000000
	9.200000	-353.588	12.0155	37.995	35.688	0.000000
	9.216667	-353.852	12.0388	37.829	35.521	0.000000
	9.233333	-354.107	12.0615	37.662	35.356	0.000000
	9.250000	-354.356	12.0835	37.495	35.189	0.000000
	9.266667	-354.604	12.109	37.329	35.02	0.000000
	9.283333	-354.841	12.1309	37.162	34.853	0.000000
	9.300000	-355.062	12.1523	36.995	34.686	0.000000
	9.316667	-355.268	12.1764	36.829	34.519	0.000000
	9.333333	-355.449	12.1985	36.662	34.352	0.000000
	9.350000	-355.605	12.2208	36.495	34.186	0.000000
	9.366667	-355.74	12.2405	36.329	34.018	0.000000
	9.383333	-355.833	12.2605	36.162	33.852	0.000000
	9.400000	-355.883	12.2841	35.995	33.685	0.000000
	9.416667	-355.893	12.3098	35.829	33.518	0.000000
	9.433333	-355.852	12.3316	35.662	33.35	0.000000
	9.450000	-355.747	12.3504	35.495	33.183	0.000000
	9.466667	-355.583	12.3749	35.329	33.015	0.000000
	9.483333	-355.351	12.3986	35.162	32.848	0.000000
	9.500000	-355.052	12.4183	34.995	32.68	0.000000
	9.516667	-354.685	12.4422	34.829	32.513	0.000000
	9.533333	-354.254	12.4651	34.662	32.345	0.000000
	9.550000	-353.756	12.4855	34.495	32.176	0.000000
	9.566667	-353.199	12.5084	34.329	32.007	0.000000
	9.583333	-352.596	12.5297	34.162	31.839	0.000000
	9.600000	-351.964	12.5499	33.995	31.669	0.000000
	9.616667	-351.303	12.57	33.829	31.5	0.000000
	9.633333	-350.64	12.5943	33.662	31.331	0.000000
	9.650000	-349.973	12.6179	33.495	31.163	0.000000
	9.666667	-349.318	12.6366	33.329	30.996	0.000000
	9.683333	-348.674	12.6596	33.162	30.827	0.000000
	9.700000	-348.057	12.6855	32.995	30.657	0.000000
	9.716667	-347.462	12.7074	32.829	30.488	0.000000
	9.733333	-346.893	12.7282	32.662	30.319	0.000000
	9.750000	-346.352	12.7506	32.495	30.151	0.000000
	9.766667	-345.833	12.7718	32.329	29.982	0.000000
	9.783333	-345.337	12.7937	32.162	29.814	0.000000
	9.800000	-344.874	12.8155	31.995	29.644	0.000000
	9.816667	-344.43	12.8344	31.829	29.476	0.000000
	9.833333	-344.004	12.8553	31.662	29.308	0.000000
	9.850000	-343.605	12.8807	31.495	29.14	0.000000
	9.866667	-343.222	12.9016	31.329	28.972	0.000000
	9.883333	-342.853	12.9222	31.162	28.803	0.000000
	9.900000	-342.506	12.9458	30.995	28.634	0.000000
	9.916667	-342.175	12.9686	30.829	28.465	0.000000
	9.933333	-341.854	12.9898	30.662	28.297	0.000000
	9.950000	-341.551	13.0135	30.495	28.129	0.000000
	9.966667	-341.262	13.0342	30.329	27.962	0.000000
	9.983333	-340.983	13.0506	30.162	27.794	0.000000
	10	-340.715	13.074	29.995	27.627	0.000000
	10.0167	-340.464	13.095	29.829	27.459	0.000000
	10.0333	-340.218	13.1175	29.662	27.29	0.000000
	10.05	-339.985	13.1406	29.495	27.123	0.000000
	10.0667	-339.765	13.1651	29.329	26.956	0.000000
	10.0833	-339.549	13.1836	29.162	26.787	0.000000
	10.1	-339.343	13.2053	28.995	26.618	0.000000
	10.1167	-339.146	13.2276	28.829	26.451	0.000000
	10.1333	-338.957	13.2508	28.662	26.283	0.000000
	10.15	-338.769	13.2712	28.495	26.116	0.000000
	10.1667	-338.59	13.2932	28.329	25.948	0.000000
	10.1833	-338.419	13.3131	28.162	25.78	0.000000
	10.2	-338.252	13.333	27.995	25.612	0.000000
	10.2167	-338.096	13.3573	27.829	25.445	0.000000
	10.2333	-337.946	13.3776	27.662	25.275	0.000000
	10.25	-337.794	13.3975	27.495	25.109	0.000000
	10.2667	-337.649	13.4208	27.329	24.942	0.000000
	10.2833	-337.517	13.4426	27.162	24.775	0.000000
	10.3	-337.383	13.4603	26.995	24.608	0.000000
	10.3167	-337.253	13.4817	26.829	24.44	0.000000
	10.3333	-337.129	13.5056	26.662	24.274	0.000000
	10.35	-337.008	13.5284	26.495	24.107	0.000000
	10.3667	-336.889	13.549	26.329	23.94	0.000000
	10.3833	-336.777	13.5723	26.162	23.773	0.000000
	10.4	-336.669	13.5921	25.995	23.606	0.000000
	10.4167	-336.563	13.6132	25.829	23.438	0.000000
	10.4333	-336.459	13.6366	25.662	23.27	0.000000
	10.45	-336.36	13.6551	25.495	23.104	0.000000
	10.4667	-336.26	13.6759	25.329	22.936	0.000000
	10.4833	-336.163	13.6986	25.162	22.769	0.000000
	10.5	-336.074	13.7188	24.995	22.602	0.000000
	10.5167	-335.983	13.737	24.829	22.436	0.000000
	10.5333	-335.895	13.7625	24.662	22.269	0.000000
	10.55	-335.815	13.7865	24.495	22.102	0.000000
	10.5667	-335.731	13.8045	24.329	21.935	0.000000
	10.5833	-335.647	13.8243	24.162	21.768	0.000000
	10.6	-335.571	13.847	23.995	21.601	0.000000
	10.6167	-335.496	13.8693	23.829	21.433	0.000000
	10.6333	-335.418	13.8873	23.662	21.267	0.000000
	10.65	-335.349	13.9102	23.495	21.1	0.000000
	10.6667	-335.267	13.9254	23.329	20.932	0.000000
	10.6833	-335.192	13.9572	23.162	20.766	0.000000
	10.7	-335.122	13.9832	22.995	20.6	0.000000
	10.7167	-335.053	14.0028	22.829	20.434	0.000000
	10.7333	-334.983	14.0173	22.662	20.268	0.000000
	10.75	-334.914	14.0336	22.495	20.102	0.000000
	10.7667	-334.849	14.05	22.329	19.936	0.000000
	10.7833	-334.786	14.0677	22.162	19.769	0.000000
	10.8	-334.723	14.0873	21.995	19.603	0.000000
	10.8167	-334.666	14.1079	21.829	19.436	0.000000
	10.8333	-334.614	14.1294	21.662	19.27	0.000000
	10.85	-334.559	14.1529	21.495	19.103	0.000000
	10.8667	-334.509	14.1774	21.329	18.937	0.000000
	10.8833	-334.456	14.1961	21.162	18.771	0.000000
	10.9	-334.406	14.2187	20.995	18.604	0.000000
	10.9167	-334.359	14.2388	20.829	18.437	0.000000
	10.9333	-334.313	14.2596	20.662	18.271	0.000000
	10.95	-334.265	14.2808	20.495	18.104	0.000000
	10.9667	-334.219	14.3057	20.329	17.937	0.000000
	10.9833	-334.175	14.3273	20.162	17.77	0.000000
	11	-334.129	14.3484	19.995	17.603	0.000000
	11.0167	-334.086	14.3685	19.829	17.436	0.000000
	11.0333	-334.043	14.3878	19.662	17.269	0.000000
	11.05	-333.999	14.4093	19.495	17.103	0.000000
	11.0667	-333.956	14.4308	19.329	16.936	0.000000
	11.0833	-333.915	14.4528	19.162	16.77	0.000000
	11.1	-333.871	14.4712	18.995	16.602	0.000000
	11.1167	-333.831	14.4926	18.829	16.436	0.000000
	11.1333	-333.791	14.5151	18.662	16.268	0.000000
	11.15	-333.75	14.5351	18.495	16.102	0.000000
	11.1667	-333.709	14.5545	18.329	15.934	0.000000
	11.1833	-333.671	14.577	18.162	15.768	0.000000
	11.2	-333.632	14.5975	17.995	15.601	0.000000
	11.2167	-333.592	14.6174	17.829	15.435	0.000000
	11.2333	-333.554	14.639	17.662	15.268	0.000000
	11.25	-333.517	14.6572	17.495	15.102	0.000000
	11.2667	-333.482	14.6785	17.329	14.936	0.000000
	11.2833	-333.446	14.7005	17.162	14.77	0.000000
	11.3	-333.411	14.722	16.995	14.603	0.000000
	11.3167	-333.375	14.7387	16.829	14.436	0.000000
	11.3333	-333.34	14.7626	16.662	14.27	0.000000
	11.35	-333.305	14.7832	16.495	14.103	0.000000
	11.3667	-333.268	14.8021	16.329	13.937	0.000000
	11.3833	-333.232	14.8221	16.162	13.771	0.000000
	11.4	-333.199	14.8448	15.995	13.605	0.000000
	11.4167	-333.165	14.8633	15.829	13.438	0.000000
	11.4333	-333.13	14.8836	15.662	13.271	0.000000
	11.45	-333.096	14.9053	15.495	13.104	0.000000
	11.4667	-333.061	14.9255	15.329	12.937	0.000000
	11.4833	-333.028	14.9448	15.162	12.77	0.000000
	11.5	-332.997	14.9667	14.995	12.603	0.000000
	11.5167	-332.966	14.9876	14.829	12.436	0.000000
	11.5333	-332.934	15.0064	14.662	12.271	0.000000
	11.55	-332.9	15.0286	14.495	12.104	0.000000
	11.5667	-332.868	15.0474	14.329	11.939	0.000000
	11.5833	-332.835	15.0661	14.162	11.772	0.000000
	11.6	-332.805	15.0874	13.995	11.605	0.000000
	11.6167	-332.773	15.1097	13.829	11.439	0.000000
	11.6333	-332.743	15.1299	13.662	11.273	0.000000
	11.65	-332.711	15.1478	13.495	11.106	0.000000
	11.6667	-332.679	15.1678	13.329	10.939	0.000000
	11.6833	-332.647	15.1877	13.162	10.774	0.000000
	11.7	-332.616	15.2093	12.995	10.608	0.000000
	11.7167	-332.587	15.2279	12.829	10.441	0.000000
	11.7333	-332.558	15.2481	12.662	10.275	0.000000
	11.75	-332.528	15.2678	12.495	10.108	0.000000
	11.7667	-332.499	15.2901	12.329	9.942000	0.000000
	11.7833	-332.468	15.3105	12.162	9.775000	0.000000
	11.8	-332.436	15.3304	11.995	9.609000	0.000000
	11.8167	-332.404	15.3518	11.829	9.442000	0.000000
	11.8333	-332.375	15.371	11.662	9.276000	0.000000
	11.85	-332.345	15.389	11.495	9.110000	0.000000
	11.8667	-332.315	15.4107	11.329	8.943000	0.000000
	11.8833	-332.286	15.4307	11.162	8.777000	0.000000
	11.9	-332.253	15.4489	10.995	8.609000	0.000000
	11.9167	-332.226	15.4706	10.829	8.442000	0.000000
	11.9333	-332.2	15.4907	10.662	8.277000	0.000000
	11.95	-332.17	15.5101	10.495	8.111000	0.000000
	11.9667	-332.138	15.5292	10.329	7.944000	0.000000
	11.9833	-332.107	15.5506	10.162	7.779000	0.000000
	12	-332.08	15.5698	9.995000	7.611000	0.000000
	12.0167	-332.049	15.5887	9.829000	7.445000	0.000000
	12.0333	-332.022	15.6104	9.662000	7.278000	0.000000
	12.05	-331.992	15.632	9.495000	7.113000	0.000000
	12.0667	-331.962	15.6517	9.329000	6.946000	0.000000
	12.0833	-331.934	15.6717	9.162000	6.780000	0.000000
	12.1	-331.908	15.6899	8.995000	6.614000	0.000000
	12.1167	-331.878	15.7062	8.829000	6.447000	0.000000
	12.1333	-331.849	15.7252	8.662000	6.282000	0.000000
	12.15	-331.821	15.7452	8.495000	6.117000	0.000000
	12.1667	-331.794	15.7665	8.329000	5.951000	0.000000
	12.1833	-331.766	15.7867	8.162000	5.785000	0.000000
	12.2	-331.741	15.8089	7.995000	5.619000	0.000000
	12.2167	-331.712	15.8298	7.829000	5.453000	0.000000
	12.2333	-331.682	15.8473	7.662000	5.287000	0.000000
	12.25	-331.657	15.8682	7.495000	5.121000	0.000000
	12.2667	-331.631	15.8865	7.329000	4.955000	0.000000
	12.2833	-331.603	15.9039	7.162000	4.790000	0.000000
	12.3	-331.574	15.9244	6.995000	4.624000	0.000000
	12.3167	-331.549	15.9462	6.829000	4.457000	0.000000
	12.3333	-331.523	15.9643	6.662000	4.292000	0.000000
	12.35	-331.496	15.9849	6.495000	4.126000	0.000000
	12.3667	-331.469	16.0037	6.329000	3.961000	0.000000
	12.3833	-331.443	16.0234	6.162000	3.795000	0.000000
	12.4	-331.416	16.0437	5.995000	3.629000	0.000000
	12.4167	-331.392	16.0648	5.829000	3.464000	0.000000
	12.4333	-331.364	16.0833	5.662000	3.298000	0.000000
	12.45	-331.338	16.1026	5.495000	3.132000	0.000000
	12.4667	-331.314	16.1223	5.329000	2.966000	0.000000
	12.4833	-331.287	16.1405	5.162000	2.800000	0.000000
	12.5	-331.26	16.1595	4.995000	2.634000	0.000000
	12.5167	-331.237	16.1797	4.829000	2.468000	0.000000
	12.5333	-331.212	16.1985	4.662000	2.303000	0.000000
	12.55	-331.186	16.2178	4.495000	2.137000	0.000000
	12.5667	-331.163	16.2382	4.329000	1.970000	0.000000
	12.5833	-331.137	16.2576	4.162000	1.805000	0.000000
	12.6	-331.111	16.278	3.995000	1.639000	0.000000
	12.6167	-331.086	16.2975	3.829000	1.473000	0.000000
	12.6333	-331.063	16.3162	3.662000	1.307000	0.000000
	12.65	-331.037	16.3345	3.495000	1.142000	0.000000
	12.6667	-331.011	16.3549	3.329000	0.975000	0.000000
	12.6833	-330.988	16.3752	3.162000	0.809000	0.000000
	12.7	-330.964	16.3943	2.995000	0.645000	0.000000
	12.7167	-330.936	16.415	2.829000	0.478000	0.000000
	12.7333	-330.914	16.4355	2.662000	0.312000	0.000000
	12.75	-330.892	16.4519	2.495000	0.146000	0.000000
	12.7667	-330.867	16.4694	2.329000	-0.020000	0.000000
	12.7833	-330.843	16.4914	2.162000	-0.185000	0.000000
	12.8	-330.818	16.5081	1.995000	-0.351000	0.000000
	12.8167	-330.794	16.5277	1.829000	-0.517000	0.000000
	12.8333	-330.772	16.5481	1.662000	-0.682000	0.000000
	12.85	-330.747	16.5671	1.495000	-0.849000	0.000000
[...]
	76.2667	-330.516	3.090251	91.337	88.361	0.000000
	76.3	-330.574	3.061344	91.504	88.531	0.000000
	76.3333	-330.628	3.029251	91.67	88.7	0.000000
	76.3667	-330.68	3.004591	91.837	88.87	0.000000
	76.4	-330.747	2.979105	92.004	89.037	0.000000
	76.4333	-330.813	2.945714	92.17	89.208	0.000000
	76.4667	-330.885	2.921999	92.337	89.376	0.000000
	76.5	-330.948	2.894507	92.504	89.545	0.000000
	76.5333	-331.015	2.869493	92.67	89.715	0.000000
	76.5667	-331.088	2.838698	92.837	89.882	0.000000
	76.6	-331.155	2.811679	93.004	90.053	0.000000
	76.6333	-331.226	2.785013	93.17	90.222	0.000000
	76.6667	-331.293	2.757640	93.337	90.39	0.000000
	76.7	-331.362	2.728614	93.504	90.558	0.000000
	76.7333	-331.429	2.705489	93.67	90.728	0.000000
	76.7667	-331.494	2.675755	93.837	90.897	0.000000
	76.8	-331.568	2.646966	94.004	91.066	0.000000
	76.8333	-331.631	2.621362	94.17	91.234	0.000000
	76.8667	-331.699	2.593871	94.337	91.404	0.000000
	76.9	-331.772	2.565200	94.504	91.572	0.000000
	76.9333	-331.838	2.540186	94.67	91.741	0.000000
	76.9667	-331.91	2.509981	94.837	91.909	0.000000
	77	-331.973	2.481427	95.004	92.078	0.000000
	77.0333	-332.042	2.455116	95.17	92.247	0.000000
	77.0667	-332.108	2.426799	95.337	92.415	0.000000
	77.1	-332.176	2.395059	95.504	92.584	0.000000
	77.1333	-332.242	2.371108	95.67	92.753	0.000000
	77.1667	-332.31	2.345268	95.837	92.922	0.000000
	77.2	-332.379	2.314119	96.004	93.091	0.000000
	77.2333	-332.439	2.286982	96.17	93.259	0.000000
	77.2667	-332.502	2.261496	96.337	93.427	0.000000
	77.3	-332.571	2.232943	96.504	93.596	0.000000
	77.3333	-332.635	2.204035	96.67	93.764	0.000000
	77.3667	-332.692	2.178668	96.837	93.933	0.000000
	77.4	-332.754	2.150586	97.004	94.102	0.000000
	77.4333	-332.81	2.122741	97.17	94.27	0.000000
	77.4667	-332.869	2.096311	97.337	94.438	0.000000
	77.5	-332.928	2.066696	97.504	94.607	0.000000
	77.5333	-332.979	2.044986	97.67	94.777	0.000000
	77.5667	-333.027	2.008763	97.837	94.946	0.000000
	77.6	-333.084	1.981390	98.004	95.116	0.000000
	77.6333	-333.134	1.953427	98.17	95.285	0.000000
	77.6667	-333.178	1.928059	98.337	95.454	0.000000
	77.7	-333.224	1.899270	98.504	95.622	0.000000
	77.7333	-333.275	1.866941	98.67	95.79	0.000000
	77.7667	-333.318	1.839803	98.837	95.959	0.000000
	77.8	-333.359	1.814553	99.004	96.128	0.000000
	77.8333	-333.409	1.788832	99.17	96.297	0.000000
	77.8667	-333.453	1.757093	99.337	96.465	0.000000
	77.9	-333.495	1.732787	99.504	96.633	0.000000
	77.9333	-333.531	1.706357	99.67	96.8	0.000000
	77.9667	-333.571	1.672377	99.837	96.97	0.000000
	78	-333.611	1.649015	100.004	97.138	0.000000
	78.0333	-333.648	1.621287	100.17	97.307	0.000000
	78.0667	-333.691	1.586717	100.337	97.474	0.000000
	78.1	-333.728	1.563591	100.504	97.644	0.000000
	78.1333	-333.765	1.536571	100.67	97.812	0.000000
	78.1667	-333.803	1.504006	100.837	97.98	0.000000
	78.2	-333.835	1.476987	101.004	98.148	0.000000
	78.2333	-333.876	1.452091	101.17	98.316	0.000000
	78.2667	-333.913	1.421060	101.337	98.484	0.000000
	78.3	-333.946	1.394630	101.504	98.654	0.000000
	78.3333	-333.982	1.370207	101.67	98.823	0.000000
	78.3667	-334.015	1.340473	101.837	98.991	0.000000
	78.4	-334.047	1.304841	102.004	99.16	0.000000
	78.4333	-334.08	1.284547	102.17	99.329	0.000000
	78.4667	-334.11	1.251746	102.337	99.497	0.000000
	78.5	-334.148	1.225434	102.504	99.665	0.000000
	78.5333	-334.177	1.200420	102.67	99.835	0.000000
	78.5667	-334.213	1.168563	102.837	100.002	0.000000
	78.6	-334.245	1.134583	103.004	100.172	0.000000
	78.6333	-334.276	1.113463	103.17	100.34	0.000000
	78.6667	-334.311	1.088449	103.337	100.509	0.000000
	78.7	-334.343	1.054350	103.504	100.678	0.000000
	78.7333	-334.374	1.026859	103.67	100.846	0.000000
	78.7667	-334.407	1.000429	103.837	101.015	0.000000
	78.8	-334.436	0.970932	104.004	101.184	0.000000
	78.8333	-334.468	0.944502	104.17	101.353	0.000000
	78.8667	-334.498	0.914297	104.337	101.522	0.000000
	78.9	-334.536	0.885154	104.504	101.691	0.000000
	78.9333	-334.563	0.856364	104.67	101.859	0.000000
	78.9667	-334.596	0.828401	104.837	102.027	0.000000
	79	-334.627	0.796544	105.004	102.195	0.000000
	79.0333	-334.656	0.768581	105.17	102.363	0.000000
	79.0667	-334.685	0.745573	105.337	102.533	0.000000
	79.1	-334.72	0.712182	105.504	102.701	0.000000
	79.1333	-334.75	0.682331	105.67	102.869	0.000000
	79.1667	-334.779	0.654013	105.837	103.036	0.000000
	79.2	-334.812	0.629707	106.004	103.207	0.000000
	79.2333	-334.841	0.598440	106.17	103.375	0.000000
	79.2667	-334.864	0.547233	106.337	103.543	0.000000
	79.3	-334.899	0.537086	106.504	103.711	0.000000
	79.3333	-334.926	0.509949	106.67	103.88	0.000000
	79.3667	-334.956	0.481867	106.837	104.049	0.000000
	79.4	-334.988	0.460629	107.004	104.217	0.000000
	79.4333	-335.021	0.429598	107.17	104.385	0.000000
	79.4667	-335.045	0.397859	107.337	104.553	0.000000
	79.5	-335.076	0.369070	107.504	104.722	0.000000
	79.5333	-335.107	0.338747	107.67	104.89	0.000000
	79.5667	-335.136	0.311727	107.837	105.059	0.000000
	79.6	-335.166	0.283882	108.004	105.228	0.000000
	79.6333	-335.197	0.256744	108.17	105.396	0.000000
	79.6667	-335.228	0.224651	108.337	105.564	0.000000
	79.7	-335.255	0.197278	108.504	105.732	0.000000
	79.7333	-335.286	0.169314	108.67	105.901	0.000000
	79.7667	-335.316	0.141823	108.837	106.069	0.000000
	79.8	-335.344	0.108786	109.004	106.238	0.000000
	79.8333	-335.376	0.080233	109.17	106.406	0.000000
	79.8667	-335.405	0.048965	109.337	106.574	0.000000
	79.9	-335.434	0.022536	109.504	106.742	0.000000
	79.9333	-335.466	-0.002478	109.67	106.911	0.000000
	79.9667	-335.495	-0.030795	109.837	107.078	0.000000
	80	-335.524	-0.065366	110.004	107.246	0.000000
	80.0333	-335.557	-0.091324	110.17	107.414	0.000000
	80.0667	-335.589	-0.118225	110.337	107.582	0.000000
	80.1	-335.614	-0.151852	110.504	107.752	0.000000
	80.1333	-335.64	-0.179461	110.67	107.92	0.000000
	80.1667	-335.67	-0.207071	110.837	108.089	0.000000
	80.2	-335.702	-0.237866	111.004	108.259	0.000000
	80.2333	-335.731	-0.265711	111.17	108.427	0.000000
	80.2667	-335.757	-0.296152	111.337	108.596	0.000000
	80.3	-335.789	-0.321756	111.504	108.764	0.000000
	80.3333	-335.817	-0.353141	111.67	108.931	0.000000
	80.3667	-335.845	-0.383582	111.837	109.102	0.000000
	80.4	-335.877	-0.413316	112.004	109.271	0.000000
	80.4333	-335.907	-0.441869	112.17	109.439	0.000000
	80.4667	-335.937	-0.467945	112.337	109.608	0.000000
	80.5	-335.961	-0.499802	112.504	109.776	0.000000
	80.5333	-335.989	-0.521512	112.67	109.944	0.000000
	80.5667	-336.02	-0.557734	112.837	110.114	0.000000
	80.6	-336.05	-0.584872	113.004	110.282	0.000000
	80.6333	-336.084	-0.617201	113.17	110.451	0.000000
	80.6667	-336.108	-0.643276	113.337	110.619	0.000000
	80.7	-336.137	-0.667818	113.504	110.788	0.000000
	80.7333	-336.171	-0.703805	113.67	110.956	0.000000
	80.7667	-336.198	-0.733184	113.837	111.124	0.000000
	80.8	-336.228	-0.755720	114.004	111.293	0.000000
	80.8333	-336.253	-0.790999	114.17	111.461	0.000000
	80.8667	-336.284	-0.816130	114.337	111.629	0.000000
	80.9	-336.312	-0.845863	114.504	111.798	0.000000
	80.9333	-336.344	-0.879962	114.67	111.966	0.000000
	80.9667	-336.366	-0.909342	114.837	112.136	0.000000
	81	-336.397	-0.933883	115.004	112.304	0.000000
	81.0333	-336.426	-0.965386	115.17	112.472	0.000000
	81.0667	-336.453	-0.995002	115.337	112.641	0.000000
	81.1	-336.482	-1.022021	115.504	112.808	0.000000
	81.1333	-336.508	-1.051282	115.67	112.978	0.000000
	81.1667	-336.54	-1.082195	115.837	113.147	0.000000
	81.2	-336.566	-1.112755	116.004	113.315	0.000000
	81.2333	-336.595	-1.139774	116.17	113.48	0.000000
	81.2667	-336.626	-1.169861	116.337	113.65	0.000000
	81.3	-336.656	-1.199595	116.504	113.82	0.000000
	81.3333	-336.68	-1.226378	116.67	113.991	0.000000
	81.3667	-336.711	-1.261775	116.837	114.161	0.000000
	81.4	-336.742	-1.290564	117.004	114.33	0.000000
	81.4333	-336.769	-1.317584	117.17	114.497	0.000000
	81.4667	-336.798	-1.346255	117.337	114.666	0.000000
	81.5	-336.825	-1.375516	117.504	114.836	0.000000
	81.5333	-336.854	-1.407137	117.67	115.004	0.000000
	81.5667	-336.884	-1.434747	117.837	115.172	0.000000
	81.6	-336.91	-1.466722	118.004	115.339	0.000000
	81.6333	-336.943	-1.491263	118.17	115.506	0.000000
	81.6667	-336.973	-1.524772	118.337	115.676	0.000000
	81.7	-337.005	-1.555803	118.504	115.843	0.000000
	81.7333	-337.029	-1.583295	118.67	116.011	0.000000
	81.7667	-337.062	-1.614444	118.837	116.179	0.000000
	81.8	-337.089	-1.644295	119.004	116.347	0.000000
	81.8333	-337.114	-1.667657	119.17	116.515	0.000000
	81.8667	-337.145	-1.699632	119.337	116.685	0.000000
	81.9	-337.176	-1.731725	119.504	116.853	0.000000
	81.9333	-337.203	-1.761222	119.67	117.02	0.000000
	81.9667	-337.229	-1.788596	119.837	117.19	0.000000
	82	-337.262	-1.820807	120.004	117.36	0.000000
	82.0333	-337.291	-1.849360	120.17	117.528	0.000000
	82.0667	-337.316	-1.874610	120.337	117.697	0.000000
	82.1	-337.352	-1.909417	120.504	117.866	0.000000
	82.1333	-337.381	-1.938442	120.67	118.033	0.000000
	82.1667	-337.405	-1.965697	120.837	118.202	0.000000
	82.2	-337.442	-1.996493	121.004	118.371	0.000000
	82.2333	-337.467	-2.030473	121.17	118.54	0.000000
	82.2667	-337.498	-2.053835	121.337	118.708	0.000000
	82.3	-337.526	-2.086754	121.504	118.877	0.000000
	82.3333	-337.558	-2.121325	121.67	119.045	0.000000
	82.3667	-337.585	-2.148108	121.837	119.213	0.000000
	82.4	-337.614	-2.176662	122.004	119.381	0.000000
	82.4333	-337.648	-2.215244	122.17	119.55	0.000000
	82.4667	-337.677	-2.236600	122.337	119.719	0.000000
	82.5	-337.708	-2.261260	122.504	119.887	0.000000
	82.5333	-337.737	-2.297954	122.67	120.054	0.000000
	82.5667	-337.768	-2.329458	122.837	120.223	0.000000
	82.6	-337.8	-2.355533	123.004	120.391	0.000000
	82.6333	-337.826	-2.386800	123.17	120.56	0.000000
	82.6667	-337.857	-2.417359	123.337	120.727	0.000000
	82.7	-337.888	-2.446975	123.504	120.897	0.000000
	82.7333	-337.917	-2.475410	123.67	121.064	0.000000
	82.7667	-337.945	-2.507739	123.837	121.232	0.000000
	82.8	-337.972	-2.538062	124.004	121.402	0.000000
	82.8333	-338.006	-2.565790	124.17	121.57	0.000000
	82.8667	-338.037	-2.596585	124.337	121.737	0.000000
	82.9	-338.063	-2.627026	124.504	121.905	0.000000
	82.9333	-338.094	-2.653219	124.67	122.075	0.000000
	82.9667	-338.124	-2.689678	124.837	122.243	0.000000
	83	-338.152	-2.717877	125.004	122.411	0.000000
	83.0333	-338.184	-2.745133	125.17	122.579	0.000000
	83.0667	-338.216	-2.782299	125.337	122.748	0.000000
	83.1	-338.244	-2.810735	125.504	122.916	0.000000
	83.1333	-338.271	-2.834923	125.67	123.083	0.000000
	83.1667	-338.31	-2.869375	125.837	123.252	0.000000
	83.2	-338.332	-2.899227	126.004	123.42	0.000000
	83.2333	-338.37	-2.925066	126.17	123.587	0.000000
	83.2667	-338.398	-2.963295	126.337	123.756	0.000000
	83.3	-338.428	-2.991730	126.504	123.925	0.000000
	83.3333	-338.458	-3.018514	126.67	124.093	0.000000
	83.3667	-338.49	-3.046831	126.837	124.262	0.000000
	83.4	-338.521	-3.077980	127.004	124.43	0.000000
	83.4333	-338.553	-3.102404	127.17	124.598	0.000000
	83.4667	-338.582	-3.133553	127.337	124.766	0.000000
	83.5	-338.608	-3.170955	127.504	124.933	0.000000
	83.5333	-338.637	-3.199273	127.67	125.101	0.000000
	83.5667	-338.671	-3.224640	127.837	125.27	0.000000
	83.6	-338.701	-3.257205	128.004	125.438	0.000000
	83.6333	-338.727	-3.284697	128.17	125.606	0.000000
	83.6667	-338.754	-3.318796	128.337	125.773	0.000000
	83.7	-338.79	-3.352776	128.504	125.942	0.000000
	83.7333	-338.819	-3.378262	128.67	126.111	0.000000
	83.7667	-338.847	-3.408821	128.837	126.279	0.000000
	83.8	-338.88	-3.439380	129.004	126.448	0.000000
	83.8333	-338.908	-3.472299	129.17	126.618	0.000000
	83.8667	-338.937	-3.498375	129.337	126.786	0.000000
	83.9	-338.97	-3.530940	129.504	126.955	0.000000
	83.9333	-338.997	-3.553948	129.67	127.123	0.000000
	83.9667	-339.033	-3.594064	129.837	127.291	0.000000
	84	-339.062	-3.623207	130.004	127.46	0.000000
	84.0333	-339.089	-3.657660	130.17	127.629	0.000000
	84.0667	-339.125	-3.681966	130.337	127.797	0.000000
	84.1	-339.154	-3.711463	130.504	127.965	0.000000
	84.1333	-339.183	-3.743556	130.67	128.133	0.000000
	84.1667	-339.218	-3.773761	130.837	128.301	0.000000
	84.2	-339.248	-3.802787	131.004	128.471	0.000000
	84.2333	-339.274	-3.832874	131.17	128.639	0.000000
	84.2667	-339.31	-3.858595	131.337	128.807	0.000000
	84.3	-339.338	-3.896824	131.504	128.975	0.000000
	84.3333	-339.367	-3.928327	131.67	129.143	0.000000
	84.3667	-339.411	-3.959122	131.837	129.312	0.000000
	84.4	-339.429	-3.984136	132.004	129.481	0.000000
	84.4333	-339.463	-4.020476	132.17	129.649	0.000000
	84.4667	-339.494	-4.048440	132.337	129.817	0.000000
	84.5	-339.521	-4.078763	132.504	129.985	0.000000
	84.5333	-339.547	-4.112508	132.67	130.154	0.000000
	84.5667	-339.578	-4.139291	132.837	130.322	0.000000
	84.6	-339.611	-4.173390	133.004	130.491	0.000000
	84.6333	-339.644	-4.200292	133.17	130.659	0.000000
	84.6667	-339.667	-4.229081	133.337	130.828	0.000000
	84.7	-339.704	-4.266366	133.504	130.996	0.000000
	84.7333	-339.733	-4.288076	133.67	131.165	0.000000
	84.7667	-339.765	-4.322882	133.837	131.333	0.000000
	84.8	-339.794	-4.356509	134.004	131.501	0.000000
	84.8333	-339.823	-4.385063	134.17	131.669	0.000000
	84.8667	-339.859	-4.415386	134.337	131.836	0.000000
	84.9	-339.888	-4.448777	134.504	132.006	0.000000
	84.9333	-339.916	-4.477448	134.67	132.174	0.000000
	84.9667	-339.947	-4.506591	134.837	132.339	0.000000
	85	-339.977	-4.537740	135.004	132.508	0.000000
	85.0333	-340.003	-4.568890	135.17	132.677	0.000000
	85.0667	-340.042	-4.600157	135.337	132.846	0.000000
	85.1	-340.074	-4.631896	135.504	133.017	0.000000
	85.1333	-340.104	-4.661983	135.67	133.186	0.000000
	85.1667	-340.133	-4.699621	135.837	133.353	0.000000
	85.2	-340.161	-4.726641	136.004	133.522	0.000000
	85.2333	-340.196	-4.753778	136.17	133.69	0.000000
	85.2667	-340.224	-4.784455	136.337	133.858	0.000000
	85.3	-340.254	-4.818082	136.504	134.026	0.000000
	85.3333	-340.291	-4.847462	136.67	134.194	0.000000
	85.3667	-340.316	-4.877903	136.837	134.362	0.000000
	85.4	-340.348	-4.905040	137.004	134.532	0.000000
	85.4333	-340.379	-4.942443	137.17	134.7	0.000000
	85.4667	-340.404	-4.969698	137.337	134.867	0.000000
	85.5	-340.434	-5.004387	137.504	135.037	0.000000
	85.5333	-340.469	-5.034356	137.67	135.203	0.000000
	85.5667	-340.502	-5.062084	137.837	135.372	0.000000
	85.6	-340.531	-5.097362	138.004	135.541	0.000000
	85.6333	-340.562	-5.128629	138.17	135.71	0.000000
	85.6667	-340.589	-5.154469	138.337	135.879	0.000000
	85.7	-340.622	-5.188804	138.504	136.046	0.000000
	85.7333	-340.655	-5.219481	138.67	136.215	0.000000
	85.7667	-340.685	-5.249804	138.837	136.383	0.000000
	85.8	-340.722	-5.278004	139.004	136.551	0.000000
	85.8333	-340.751	-5.312810	139.17	136.719	0.000000
	85.8667	-340.779	-5.342662	139.337	136.888	0.000000
	85.9	-340.813	-5.370861	139.504	137.056	0.000000
	85.9333	-340.84	-5.404606	139.67	137.225	0.000000
	85.9667	-340.868	-5.436817	139.837	137.394	0.000000
	86	-340.902	-5.464072	140.004	137.561	0.000000
	86.0333	-340.937	-5.498053	140.17	137.73	0.000000
	86.0667	-340.966	-5.530854	140.337	137.899	0.000000
	86.1	-340.997	-5.560233	140.504	138.067	0.000000
	86.1333	-341.027	-5.591736	140.67	138.235	0.000000
	86.1667	-341.057	-5.624655	140.837	138.405	0.000000
	86.2	-341.088	-5.656984	141.004	138.573	0.000000
	86.2333	-341.12	-5.684122	141.17	138.741	0.000000
	86.2667	-341.148	-5.717985	141.337	138.909	0.000000
	86.3	-341.182	-5.749016	141.504	139.077	0.000000
	86.3333	-341.209	-5.780165	141.67	139.245	0.000000
	86.3667	-341.247	-5.811904	141.837	139.414	0.000000
	86.4	-341.275	-5.839277	142.004	139.583	0.000000
	86.4333	-341.306	-5.869601	142.17	139.751	0.000000
	86.4667	-341.333	-5.909835	142.337	139.92	0.000000
	86.5	-341.369	-5.936854	142.504	140.088	0.000000
	86.5333	-341.398	-5.965762	142.67	140.256	0.000000
	86.5667	-341.429	-5.995731	142.837	140.424	0.000000
	86.6	-341.461	-6.028650	143.004	140.593	0.000000
	86.6333	-341.495	-6.055669	143.17	140.761	0.000000
	86.6667	-341.519	-6.094488	143.337	140.93	0.000000
	86.7	-341.557	-6.127643	143.504	141.097	0.000000
	86.7333	-341.591	-6.150297	143.67	141.266	0.000000
	86.7667	-341.619	-6.185457	143.837	141.434	0.000000
	86.8	-341.652	-6.217904	144.004	141.602	0.000000
	86.8333	-341.682	-6.244452	144.17	141.77	0.000000
	86.8667	-341.71	-6.281382	144.337	141.938	0.000000
	86.9	-341.753	-6.313475	144.504	142.107	0.000000
	86.9333	-341.782	-6.343563	144.67	142.275	0.000000
	86.9667	-341.812	-6.374712	144.837	142.442	0.000000
	87	-341.843	-6.400905	145.004	142.61	0.000000
	87.0333	-341.871	-6.438426	145.17	142.779	0.000000
	87.0667	-341.897	-6.470637	145.337	142.948	0.000000
	87.1	-341.926	-6.500488	145.504	143.115	0.000000
	87.1333	-341.961	-6.535177	145.67	143.283	0.000000
	87.1667	-341.993	-6.561252	145.837	143.452	0.000000
	87.2	-342.028	-6.596649	146.004	143.619	0.000000
	87.2333	-342.057	-6.631928	146.17	143.787	0.000000
	87.2667	-342.089	-6.665437	146.337	143.956	0.000000
	87.3	-342.121	-6.690214	146.504	144.125	0.000000
	87.3333	-342.157	-6.724785	146.67	144.292	0.000000
	87.3667	-342.184	-6.753221	146.837	144.461	0.000000
	87.4	-342.208	-6.785786	147.004	144.63	0.000000
	87.4333	-342.247	-6.819412	147.17	144.797	0.000000
	87.4667	-342.282	-6.847258	147.337	144.966	0.000000
	87.5	-342.312	-6.880059	147.504	145.134	0.000000
	87.5333	-342.343	-6.917343	147.67	145.302	0.000000
	87.5667	-342.375	-6.946369	147.837	145.471	0.000000
	87.6	-342.404	-6.976692	148.004	145.638	0.000000
	87.6333	-342.439	-7.009493	148.17	145.807	0.000000
	87.6667	-342.473	-7.038872	148.337	145.975	0.000000
	87.7	-342.503	-7.074977	148.504	146.143	0.000000
	87.7333	-342.533	-7.104474	148.67	146.311	0.000000
	87.7667	-342.566	-7.136567	148.837	146.48	0.000000
	87.8	-342.599	-7.167126	149.004	146.648	0.000000
	87.8333	-342.63	-7.206652	149.17	146.817	0.000000
	87.8667	-342.658	-7.234734	149.337	146.985	0.000000
	87.9	-342.694	-7.266119	149.504	147.153	0.000000
	87.9333	-342.727	-7.299982	149.67	147.321	0.000000
	87.9667	-342.756	-7.329951	149.837	147.491	0.000000
	87.9833	-342.771	-7.343402	149.92	147.575	0.000000

	TEMPERATURE CALIBRATION INPUTS:
Calibration Type:    	One-point Calibration

Reference	Expected (°C)	Measured (°C)	Method
Indium          	   156.600	   158.150	                 	Used
Zinc            	   419.470	   419.470	                 	Not Used
                	     0.000	     0.000	                 	Not Used
                	     0.000	     0.000	                 	Not Used
                	     0.000	     0.000	                 	Not Used
                	     0.000	     0.000	                 	Not Used
                	     0.000	     0.000	                 	Not Used
                	     0.000	     0.000	                 	Not Used
                	     0.000	     0.000	                 	Not Used
                	     0.000	     0.000	                 	Not Used
	MULTI-POINT VALUES:
Offsets (°C)	Slopes	Boundaries (°C)
    -1.550	     1.000	     0.000
    -1.550	     1.000	   158.660
    -1.550	     1.000	   158.660
    -1.550	     1.000	   158.660
    -1.550	     1.000	   158.660
    -1.550	     1.000	   158.660
    -1.550	     1.000	   158.660
    -1.550	     1.000	   158.660
    -1.550	     1.000	   158.660
    -1.550	     1.000	   158.660
    -1.550	     1.000	   158.660

NEWPAGE

	DSC HEAT FLOW CALIBRATION INPUTS:
Range: Low (320 mW)
Reference Material:	Indium
Expected Enthalpy:	  28.450 J/g	Measured Enthalpy:	  24.809 J/g
Weight:	   4.447 mg	Method:	IndCal

	DSC HEAT FLOW CALIBRATION COMPUTED RESULTS:
Range: Low (320 mW)
Low Range Factor	   1.180	Date:	4/28/2017 1:12:14 PM

	FURNACE CALIBRATION INPUTS:
Minimum	  50.000 °C
Maximum	 450.000 °C

	FURNACE CALIBRATION COMPUTED RESULTS:
Date:	6/20/2016 10:12:19 AM
Offset	   0.000 °C
Factor	   1.000

	PROFILE VALUES FOR THIS DATA:

Software Version	10.1.0.0412
Firmware Version	Part Number N5378059  Revision 64
Instrument Serial Number
Load Temperature	40.0 °C
Go To Temp Rate	200.0 °C/min
Maximum Allowed Temperature	600.0 °C
Helium Purge	Was Not Used
Liquid Nitrogen	Was Not Used
Data taken using the	Normal Range
Filter Factor	0
Lag Compensation	0
Cooling Device
10 Second Delay	Was Used