File: documentation/exampledata/SandiaSLM50_3_asprinted_120419.txt
Filename:	C:\Program Files\Pyris\Data\Mingear\2019 SLMs\SandiaSLM50_3_asprinted_120419.dcd
Operator ID:	Mingear
Sample ID:	SLM 50.3 as printed 12.4.19
Comment: 	Al with lid
Serial Number:
Data Collected:	12/6/2019 12:14:10 PM
Sample Weight:	124.300 mg
Display Weight:	124.300
Validation
Validated:	No
By:
Date:
Calibration Information
Filename:	C:\Program Files\Pyris\Calibrations\Indium 28Apr2017.dcc
Date/Time:
Initial Conditions
Temperature:	 110.00 °C
Y Initial:	20.00 mW
Sample Rate:	Standard
Baseline Filename:	C:\Program Files\Pyris\Data\Mingear\2019 SLMs\SandiaSLM50_3_BL.dcd
End Condition:	Go To Load
Total Points in Run:	5280
Method Steps:
Pre-Run Actions
Start the Run
	Action occurs Immediately
Switch the Gas to Nitrogen at 20.0 ml/min
	Action occurs Immediately
1)	Hold for 2.0 min at 110.00°C

2)	Cool from 110.00°C to -10.00°C at 10.00°C/min

3)	Hold for 2.0 min at -10.00°C

4)	Heat from -10.00°C to 110.00°C at 10.00°C/min

5)	Hold for 2.0 min at 110.00°C

6)	Cool from 110.00°C to -10.00°C at 5.00°C/min

7)	Hold for 2.0 min at -10.00°C

8)	Heat from -10.00°C to 150.00°C at 5.00°C/min

1) DSC Isothermal
	Time     	Unsubtracted	Baseline     	Program     	Sample     	Approx.
	          	Heat Flow     	Heat Flow     	Temperature	Temperature	Gas Flow
	0.000000	20.4724	0.000000	110	94.539	0.000000
	0.016667	13.8081	0.000000	110	97.875	0.000000
	0.033333	-2.438919	0.000000	110	100.791	0.000000
	0.050000	15.3958	0.000000	110	102.958	0.000000
	0.066667	37.9905	0.000000	110	104.455	0.000000
	0.083333	52.8704	0.000000	110	105.452	0.000000
	0.100000	59.7216	0.000000	110	106.107	0.000000
	0.116667	61.0099	0.000000	110	106.537	0.000000
	0.133333	59.0822	0.000000	110	106.82	0.000000
	0.150000	55.5526	0.000000	110	107.01	0.000000
	0.166667	51.3661	0.000000	110	107.138	0.000000
	0.183333	47.058	0.000000	110	107.228	0.000000
	0.200000	42.8168	0.000000	110	107.291	0.000000
	0.216667	38.8091	0.000000	110	107.338	0.000000
	0.233333	34.9918	0.000000	110	107.371	0.000000
	0.250000	31.352	0.000000	110	107.398	0.000000
	0.266667	28.0349	0.000000	110	107.419	0.000000
	0.283333	24.864	0.000000	110	107.434	0.000000
	0.300000	21.7177	0.000000	110	107.447	0.000000
	0.316667	18.7015	0.000000	110	107.458	0.000000
	0.333333	15.7897	0.000000	110	107.469	0.000000
	0.350000	12.8671	0.000000	110	107.478	0.000000
	0.366667	10.0664	0.000000	110	107.486	0.000000
	0.383333	7.340130	0.000000	110	107.492	0.000000
	0.400000	4.824604	0.000000	110	107.498	0.000000
	0.416667	2.540454	0.000000	110	107.504	0.000000
	0.433333	0.236600	0.000000	110	107.508	0.000000
	0.450000	-1.988555	0.000000	110	107.514	0.000000
	0.466667	-4.330755	0.000000	110	107.519	0.000000
	0.483333	-6.781388	0.000000	110	107.525	0.000000
	0.500000	-9.298448	0.000000	110	107.53	0.000000
	0.516667	-11.8896	0.000000	110	107.535	0.000000
	0.533333	-14.5927	0.000000	110	107.54	0.000000
	0.550000	-17.5307	0.000000	110	107.545	0.000000
	0.566667	-20.8261	0.000000	110	107.551	0.000000
	0.583333	-24.4983	0.000000	110	107.556	0.000000
	0.600000	-28.4619	0.000000	110	107.563	0.000000
	0.616667	-32.6951	0.000000	110	107.569	0.000000
	0.633333	-37.4076	0.000000	110	107.576	0.000000
	0.650000	-42.4175	0.000000	110	107.585	0.000000
	0.666667	-47.4294	0.000000	110	107.593	0.000000
	0.683333	-52.4107	0.000000	110	107.603	0.000000
	0.700000	-57.398	0.000000	110	107.611	0.000000
	0.716667	-62.4117	0.000000	110	107.622	0.000000
	0.733333	-67.4784	0.000000	110	107.633	0.000000
	0.750000	-72.4772	0.000000	110	107.641	0.000000
	0.766667	-77.2536	0.000000	110	107.651	0.000000
	0.783333	-81.7338	0.000000	110	107.659	0.000000
	0.800000	-85.9031	0.000000	110	107.667	0.000000
	0.816667	-89.7939	0.000000	110	107.675	0.000000
	0.833333	-93.4244	0.000000	110	107.684	0.000000
	0.850000	-96.8091	0.000000	110	107.691	0.000000
	0.866667	-99.979	0.000000	110	107.699	0.000000
	0.883333	-102.938	0.000000	110	107.705	0.000000
	0.900000	-105.697	0.000000	110	107.71	0.000000
	0.916667	-108.264	0.000000	110	107.715	0.000000
	0.933333	-110.652	0.000000	110	107.72	0.000000
	0.950000	-112.861	0.000000	110	107.724	0.000000
	0.966667	-114.904	0.000000	110	107.729	0.000000
	0.983333	-116.795	0.000000	110	107.733	0.000000
	1.000000	-118.54	0.000000	110	107.738	0.000000
	1.016667	-120.152	0.000000	110	107.742	0.000000
	1.033333	-121.637	0.000000	110	107.745	0.000000
	1.050000	-123.004	0.000000	110	107.749	0.000000
	1.066667	-124.265	0.000000	110	107.751	0.000000
	1.083333	-125.431	0.000000	110	107.754	0.000000
	1.100000	-126.498	0.000000	110	107.756	0.000000
	1.116667	-127.479	0.000000	110	107.759	0.000000
	1.133333	-128.383	0.000000	110	107.761	0.000000
	1.150000	-129.213	0.000000	110	107.763	0.000000
	1.166667	-129.978	0.000000	110	107.764	0.000000
	1.183333	-130.681	0.000000	110	107.765	0.000000
	1.200000	-131.326	0.000000	110	107.766	0.000000
	1.216667	-131.917	0.000000	110	107.767	0.000000
	1.233333	-132.459	0.000000	110	107.769	0.000000
	1.250000	-132.959	0.000000	110	107.769	0.000000
	1.266667	-133.416	0.000000	110	107.77	0.000000
	1.283333	-133.836	0.000000	110	107.772	0.000000
	1.300000	-134.224	0.000000	110	107.773	0.000000
	1.316667	-134.581	0.000000	110	107.774	0.000000
	1.333333	-134.91	0.000000	110	107.774	0.000000
	1.350000	-135.21	0.000000	110	107.775	0.000000
	1.366667	-135.484	0.000000	110	107.775	0.000000
	1.383333	-135.739	0.000000	110	107.775	0.000000
	1.400000	-135.969	0.000000	110	107.777	0.000000
	1.416667	-136.18	0.000000	110	107.777	0.000000
	1.433333	-136.379	0.000000	110	107.778	0.000000
	1.450000	-136.558	0.000000	110	107.778	0.000000
	1.466667	-136.722	0.000000	110	107.779	0.000000
	1.483333	-136.871	0.000000	110	107.778	0.000000
	1.500000	-137.009	0.000000	110	107.778	0.000000
	1.516667	-137.135	0.000000	110	107.778	0.000000
	1.533333	-137.251	0.000000	110	107.778	0.000000
	1.550000	-137.358	0.000000	110	107.778	0.000000
	1.566667	-137.454	0.000000	110	107.779	0.000000
	1.583333	-137.542	0.000000	110	107.779	0.000000
	1.600000	-137.622	0.000000	110	107.779	0.000000
	1.616667	-137.698	0.000000	110	107.779	0.000000
	1.633333	-137.767	0.000000	110	107.78	0.000000
	1.650000	-137.83	0.000000	110	107.781	0.000000
	1.666667	-137.883	0.000000	110	107.78	0.000000
	1.683333	-137.934	0.000000	110	107.78	0.000000
	1.700000	-137.98	0.000000	110	107.78	0.000000
	1.716667	-138.026	0.000000	110	107.78	0.000000
	1.733333	-138.07	0.000000	110	107.78	0.000000
	1.750000	-138.109	0.000000	110	107.78	0.000000
	1.766667	-138.138	0.000000	110	107.781	0.000000
	1.783333	-138.167	0.000000	110	107.781	0.000000
	1.800000	-138.195	0.000000	110	107.781	0.000000
	1.816667	-138.223	0.000000	110	107.781	0.000000
	1.833333	-138.246	0.000000	110	107.781	0.000000
	1.850000	-138.268	0.000000	110	107.781	0.000000
	1.866667	-138.286	0.000000	110	107.781	0.000000
	1.883333	-138.303	0.000000	110	107.781	0.000000
	1.900000	-138.318	0.000000	110	107.781	0.000000
	1.916667	-138.335	0.000000	110	107.782	0.000000
	1.933333	-138.35	0.000000	110	107.782	0.000000
	1.950000	-138.362	0.000000	110	107.781	0.000000
	1.966667	-138.373	0.000000	110	107.781	0.000000
	1.983333	-138.387	0.000000	110	107.78	0.000000
2) DSC Temperature Scan
	2.000000	-138.453	0.000000	109.995	107.78	0.000000
	2.016667	-138.241	0.000000	109.829	107.78	0.000000
	2.033333	-138.363	0.234208	109.662	107.765	0.000000
	2.050000	-138.418	-0.009439	109.495	107.721	0.000000
	2.066667	-138.159	-0.295445	109.329	107.645	0.000000
	2.083333	-137.925	-0.194918	109.162	107.544	0.000000
	2.100000	-137.911	0.102179	108.995	107.423	0.000000
	2.116667	-138.147	0.426058	108.829	107.289	0.000000
	2.133333	-138.572	0.694247	108.662	107.145	0.000000
	2.150000	-139.116	0.886098	108.495	106.993	0.000000
	2.166667	-139.711	1.025561	108.329	106.837	0.000000
	2.183333	-140.319	1.124672	108.162	106.677	0.000000
	2.200000	-140.92	1.190037	107.995	106.515	0.000000
	2.216667	-141.495	1.240419	107.829	106.351	0.000000
	2.233333	-142.029	1.285491	107.662	106.187	0.000000
	2.250000	-142.52	1.322185	107.495	106.022	0.000000
	2.266667	-142.971	1.356166	107.329	105.856	0.000000
	2.283333	-143.389	1.386961	107.162	105.69	0.000000
	2.300000	-143.77	1.417166	106.995	105.523	0.000000
	2.316667	-144.113	1.447372	106.829	105.356	0.000000
	2.333333	-144.422	1.482178	106.662	105.189	0.000000
	2.350000	-144.701	1.510496	106.495	105.022	0.000000
	2.366667	-144.952	1.534683	106.329	104.855	0.000000
	2.383333	-145.189	1.564889	106.162	104.687	0.000000
	2.400000	-145.4	1.591672	105.995	104.52	0.000000
	2.416667	-145.579	1.619046	105.829	104.351	0.000000
	2.433333	-145.745	1.649369	105.662	104.185	0.000000
	2.450000	-145.9	1.679574	105.495	104.017	0.000000
	2.466667	-146.032	1.706357	105.329	103.849	0.000000
	2.483333	-146.148	1.733495	105.162	103.68	0.000000
	2.500000	-146.254	1.763582	104.995	103.513	0.000000
	2.516667	-146.349	1.788950	104.829	103.346	0.000000
	2.533333	-146.434	1.817149	104.662	103.176	0.000000
	2.550000	-146.507	1.843815	104.495	103.009	0.000000
	2.566667	-146.57	1.871778	104.329	102.842	0.000000
	2.583333	-146.627	1.902455	104.162	102.673	0.000000
	2.600000	-146.676	1.936200	103.995	102.505	0.000000
	2.616667	-146.722	1.963220	103.829	102.337	0.000000
	2.633333	-146.756	1.984812	103.662	102.169	0.000000
	2.650000	-146.784	2.013247	103.495	102	0.000000
	2.666667	-146.812	2.041918	103.329	101.832	0.000000
	2.683333	-146.833	2.075427	103.162	101.664	0.000000
	2.700000	-146.853	2.102683	102.995	101.496	0.000000
	2.716667	-146.867	2.130646	102.829	101.328	0.000000
	2.733333	-146.879	2.156014	102.662	101.159	0.000000
	2.750000	-146.881	2.184921	102.495	100.991	0.000000
	2.766667	-146.888	2.217250	102.329	100.823	0.000000
	2.783333	-146.885	2.241556	102.162	100.656	0.000000
	2.800000	-146.888	2.269991	101.995	100.487	0.000000
	2.816667	-146.89	2.298544	101.829	100.319	0.000000
	2.833333	-146.882	2.325210	101.662	100.151	0.000000
	2.850000	-146.876	2.355297	101.495	99.982	0.000000
	2.866667	-146.868	2.383851	101.329	99.813	0.000000
	2.883333	-146.858	2.412994	101.162	99.644	0.000000
	2.900000	-146.846	2.440603	100.995	99.477	0.000000
	2.916667	-146.84	2.469747	100.829	99.308	0.000000
	2.933333	-146.825	2.500070	100.662	99.14	0.000000
	2.950000	-146.806	2.526853	100.495	98.972	0.000000
	2.966667	-146.787	2.555525	100.329	98.803	0.000000
	2.983333	-146.781	2.583016	100.162	98.636	0.000000
	3.000000	-146.765	2.609328	99.995	98.467	0.000000
	3.016667	-146.748	2.637881	99.829	98.298	0.000000
	3.033333	-146.725	2.667850	99.662	98.13	0.000000
	3.050000	-146.71	2.694752	99.495	97.963	0.000000
	3.066667	-146.692	2.716934	99.329	97.793	0.000000
	3.083333	-146.674	2.745605	99.162	97.626	0.000000
	3.100000	-146.653	2.773568	98.995	97.458	0.000000
	3.116667	-146.63	2.803184	98.829	97.29	0.000000
	3.133333	-146.609	2.834451	98.662	97.122	0.000000
	3.150000	-146.591	2.862414	98.495	96.953	0.000000
	3.166667	-146.568	2.886130	98.329	96.785	0.000000
	3.183333	-146.549	2.919521	98.162	96.616	0.000000
	3.200000	-146.535	2.947012	97.995	96.448	0.000000
	3.216667	-146.504	2.974032	97.829	96.28	0.000000
	3.233333	-146.482	3.003529	97.662	96.112	0.000000
	3.250000	-146.461	3.027481	97.495	95.944	0.000000
	3.266667	-146.442	3.058630	97.329	95.775	0.000000
	3.283333	-146.419	3.088245	97.162	95.607	0.000000
	3.300000	-146.398	3.117860	96.995	95.439	0.000000
	3.316667	-146.377	3.141104	96.829	95.271	0.000000
	3.333333	-146.356	3.168950	96.662	95.102	0.000000
	3.350000	-146.332	3.200453	96.495	94.934	0.000000
	3.366667	-146.31	3.224168	96.329	94.766	0.000000
	3.383333	-146.287	3.252958	96.162	94.598	0.000000
	3.400000	-146.264	3.280685	95.995	94.43	0.000000
	3.416667	-146.242	3.311244	95.829	94.262	0.000000
	3.433333	-146.212	3.335668	95.662	94.093	0.000000
	3.450000	-146.191	3.370239	95.495	93.924	0.000000
	3.466667	-146.174	3.393365	95.329	93.757	0.000000
	3.483333	-146.152	3.418496	95.162	93.589	0.000000
	3.500000	-146.127	3.446932	94.995	93.42	0.000000
	3.516667	-146.108	3.473597	94.829	93.251	0.000000
	3.533333	-146.076	3.500499	94.662	93.082	0.000000
	3.550000	-146.053	3.528580	94.495	92.915	0.000000
	3.566667	-146.033	3.561735	94.329	92.747	0.000000
	3.583333	-146.011	3.587693	94.162	92.578	0.000000
	3.600000	-145.989	3.613768	93.995	92.41	0.000000
	3.616667	-145.969	3.642322	93.829	92.242	0.000000
	3.633333	-145.947	3.669931	93.662	92.073	0.000000
	3.650000	-145.919	3.699428	93.495	91.905	0.000000
	3.666667	-145.903	3.727274	93.329	91.736	0.000000
	3.683333	-145.883	3.753467	93.162	91.568	0.000000
	3.700000	-145.857	3.780133	92.995	91.4	0.000000
	3.716667	-145.833	3.806680	92.829	91.23	0.000000
	3.733333	-145.816	3.834644	92.662	91.063	0.000000
	3.750000	-145.789	3.860247	92.495	90.894	0.000000
	3.766667	-145.773	3.890924	92.329	90.723	0.000000
	3.783333	-145.748	3.918534	92.162	90.554	0.000000
	3.800000	-145.729	3.943076	91.995	90.384	0.000000
	3.816667	-145.706	3.968561	91.829	90.215	0.000000
	3.833333	-145.685	4.002306	91.662	90.046	0.000000
	3.850000	-145.665	4.022364	91.495	89.878	0.000000
	3.866667	-145.639	4.051390	91.329	89.707	0.000000
	3.883333	-145.62	4.080061	91.162	89.539	0.000000
	3.900000	-145.597	4.107906	90.995	89.371	0.000000
	3.916667	-145.576	4.139763	90.829	89.202	0.000000
	3.933333	-145.558	4.167609	90.662	89.033	0.000000
	3.950000	-145.538	4.196398	90.495	88.865	0.000000
	3.966667	-145.518	4.222710	90.329	88.696	0.000000
	3.983333	-145.494	4.245600	90.162	88.527	0.000000
	4.000000	-145.475	4.277457	89.995	88.359	0.000000
	4.016667	-145.457	4.304358	89.829	88.19	0.000000
	4.033333	-145.44	4.329962	89.662	88.021	0.000000
	4.050000	-145.417	4.353206	89.495	87.853	0.000000
	4.066667	-145.396	4.384709	89.329	87.684	0.000000
	4.083333	-145.373	4.408542	89.162	87.517	0.000000
	4.100000	-145.357	4.434972	88.995	87.348	0.000000
	4.116667	-145.333	4.461873	88.829	87.18	0.000000
	4.133333	-145.309	4.490663	88.662	87.011	0.000000
	4.150000	-145.286	4.518744	88.495	86.843	0.000000
	4.166667	-145.266	4.541044	88.329	86.675	0.000000
	4.183333	-145.242	4.567592	88.162	86.507	0.000000
	4.200000	-145.222	4.598387	87.995	86.338	0.000000
	4.216667	-145.199	4.626940	87.829	86.17	0.000000
	4.233333	-145.177	4.648060	87.662	86.001	0.000000
	4.250000	-145.152	4.672484	87.495	85.833	0.000000
	4.266667	-145.131	4.698087	87.329	85.664	0.000000
	4.283333	-145.108	4.726523	87.162	85.497	0.000000
	4.300000	-145.089	4.752008	86.995	85.328	0.000000
	4.316667	-145.067	4.779028	86.829	85.159	0.000000
	4.333333	-145.04	4.806401	86.662	84.99	0.000000
	4.350000	-145.019	4.834129	86.495	84.822	0.000000
	4.366667	-145.002	4.855131	86.329	84.655	0.000000
	4.383333	-144.979	4.879673	86.162	84.486	0.000000
	4.400000	-144.958	4.906574	85.995	84.316	0.000000
	4.416667	-144.938	4.933594	85.829	84.147	0.000000
	4.433333	-144.915	4.960141	85.662	83.978	0.000000
	4.450000	-144.895	4.985627	85.495	83.811	0.000000
	4.466667	-144.873	5.013708	85.329	83.642	0.000000
	4.483333	-144.85	5.043323	85.162	83.474	0.000000
	4.500000	-144.83	5.067039	84.995	83.305	0.000000
	4.516667	-144.81	5.094295	84.829	83.137	0.000000
	4.533333	-144.791	5.121314	84.662	82.969	0.000000
	4.550000	-144.768	5.144204	84.495	82.8	0.000000
	4.566667	-144.747	5.173347	84.329	82.632	0.000000
	4.583333	-144.727	5.202373	84.162	82.464	0.000000
	4.600000	-144.706	5.224673	83.995	82.294	0.000000
	4.616667	-144.686	5.252990	83.829	82.125	0.000000
	4.633333	-144.669	5.278004	83.662	81.957	0.000000
	4.650000	-144.646	5.303961	83.495	81.788	0.000000
	4.666667	-144.624	5.330981	83.329	81.619	0.000000
	4.683333	-144.603	5.360242	83.162	81.451	0.000000
	4.700000	-144.583	5.382306	82.995	81.282	0.000000
	4.716667	-144.562	5.412275	82.829	81.113	0.000000
	4.733333	-144.542	5.440828	82.662	80.945	0.000000
	4.750000	-144.522	5.466078	82.495	80.777	0.000000
	4.766667	-144.505	5.493334	82.329	80.608	0.000000
	4.783333	-144.481	5.519055	82.162	80.439	0.000000
	4.800000	-144.461	5.543715	81.995	80.27	0.000000
	4.816667	-144.437	5.565661	81.829	80.102	0.000000
	4.833333	-144.418	5.593978	81.662	79.933	0.000000
	4.850000	-144.398	5.623122	81.495	79.765	0.000000
	4.866667	-144.382	5.649787	81.329	79.595	0.000000
	4.883333	-144.365	5.674211	81.162	79.427	0.000000
	4.900000	-144.345	5.698753	80.995	79.26	0.000000
	4.916667	-144.321	5.724946	80.829	79.091	0.000000
	4.933333	-144.302	5.753971	80.662	78.922	0.000000
	4.950000	-144.288	5.780519	80.495	78.754	0.000000
	4.966667	-144.266	5.802583	80.329	78.586	0.000000
	4.983333	-144.244	5.830664	80.162	78.417	0.000000
	5.000000	-144.231	5.859454	79.995	78.248	0.000000
	5.016667	-144.217	5.886709	79.829	78.079	0.000000
	5.033333	-144.196	5.910897	79.662	77.91	0.000000
	5.050000	-144.179	5.936146	79.495	77.742	0.000000
	5.066667	-144.157	5.964582	79.329	77.574	0.000000
	5.083333	-144.139	5.990421	79.162	77.406	0.000000
	5.100000	-144.123	6.014845	78.995	77.237	0.000000
	5.116667	-144.105	6.039741	78.829	77.069	0.000000
	5.133333	-144.085	6.068530	78.662	76.9	0.000000
	5.150000	-144.068	6.095432	78.495	76.732	0.000000
	5.166667	-144.051	6.118086	78.329	76.563	0.000000
	5.183333	-144.033	6.143925	78.162	76.394	0.000000
	5.200000	-144.016	6.174248	77.995	76.226	0.000000
	5.216667	-144	6.201150	77.829	76.058	0.000000
	5.233333	-143.982	6.221562	77.662	75.889	0.000000
	5.250000	-143.965	6.245396	77.495	75.721	0.000000
	5.266667	-143.951	6.273713	77.329	75.553	0.000000
	5.283333	-143.941	6.300261	77.162	75.383	0.000000
	5.300000	-143.924	6.324920	76.995	75.214	0.000000
	5.316667	-143.908	6.353710	76.829	75.046	0.000000
	5.333333	-143.891	6.378841	76.662	74.878	0.000000
	5.350000	-143.875	6.407749	76.495	74.708	0.000000
	5.366667	-143.862	6.435476	76.329	74.54	0.000000
	5.383333	-143.854	6.460018	76.162	74.371	0.000000
	5.400000	-143.841	6.483616	75.995	74.202	0.000000
	5.416667	-143.828	6.509219	75.829	74.034	0.000000
	5.433333	-143.815	6.534351	75.662	73.865	0.000000
	5.450000	-143.803	6.561252	75.495	73.697	0.000000
	5.466667	-143.792	6.587210	75.329	73.527	0.000000
	5.483333	-143.781	6.615055	75.162	73.358	0.000000
	5.500000	-143.771	6.638653	74.995	73.19	0.000000
	5.516667	-143.757	6.662841	74.829	73.023	0.000000
	5.533333	-143.746	6.689742	74.662	72.853	0.000000
	5.550000	-143.737	6.714756	74.495	72.684	0.000000
	5.566667	-143.723	6.740714	74.329	72.514	0.000000
	5.583333	-143.713	6.768559	74.162	72.346	0.000000
	5.600000	-143.706	6.794045	73.995	72.177	0.000000
	5.616667	-143.699	6.819058	73.829	72.008	0.000000
	5.633333	-143.693	6.847376	73.662	71.84	0.000000
	5.650000	-143.685	6.874395	73.495	71.671	0.000000
	5.666667	-143.677	6.895397	73.329	71.502	0.000000
	5.683333	-143.673	6.920647	73.162	71.333	0.000000
	5.700000	-143.666	6.946487	72.995	71.162	0.000000
	5.716667	-143.663	6.972444	72.829	70.993	0.000000
	5.733333	-143.656	6.999346	72.662	70.825	0.000000
	5.750000	-143.651	7.026365	72.495	70.656	0.000000
	5.766667	-143.651	7.049491	72.329	70.487	0.000000
	5.783333	-143.647	7.075921	72.162	70.319	0.000000
	5.800000	-143.646	7.102232	71.995	70.151	0.000000
	5.816667	-143.646	7.128544	71.829	69.982	0.000000
	5.833333	-143.64	7.153203	71.662	69.813	0.000000
	5.850000	-143.64	7.180341	71.495	69.644	0.000000
	5.866667	-143.642	7.202405	71.329	69.476	0.000000
	5.883333	-143.646	7.227418	71.162	69.308	0.000000
	5.900000	-143.649	7.255264	70.995	69.14	0.000000
	5.916667	-143.652	7.283109	70.829	68.972	0.000000
	5.933333	-143.653	7.304347	70.662	68.804	0.000000
	5.950000	-143.653	7.332547	70.495	68.634	0.000000
	5.966667	-143.658	7.359566	70.329	68.465	0.000000
	5.983333	-143.666	7.385760	70.162	68.297	0.000000
	6.000000	-143.668	7.406290	69.995	68.129	0.000000
	6.016667	-143.676	7.431186	69.829	67.96	0.000000
	6.033333	-143.685	7.455491	69.662	67.793	0.000000
	6.050000	-143.699	7.482747	69.495	67.623	0.000000
	6.066667	-143.707	7.509176	69.329	67.455	0.000000
	6.083333	-143.713	7.533246	69.162	67.287	0.000000
	6.100000	-143.725	7.559558	68.995	67.119	0.000000
	6.116667	-143.74	7.586459	68.829	66.95	0.000000
	6.133333	-143.753	7.611827	68.662	66.781	0.000000
	6.150000	-143.767	7.635071	68.495	66.613	0.000000
	6.166667	-143.782	7.661972	68.329	66.444	0.000000
	6.183333	-143.8	7.687222	68.162	66.273	0.000000
	6.200000	-143.821	7.714359	67.995	66.105	0.000000
	6.216667	-143.844	7.741143	67.829	65.937	0.000000
	6.233333	-143.868	7.763797	67.662	65.768	0.000000
	6.250000	-143.885	7.787984	67.495	65.6	0.000000
	6.266667	-143.909	7.812880	67.329	65.432	0.000000
	6.283333	-143.937	7.839664	67.162	65.262	0.000000
	6.300000	-143.962	7.865975	66.995	65.093	0.000000
	6.316667	-143.989	7.888629	66.829	64.924	0.000000
	6.333333	-144.02	7.912581	66.662	64.754	0.000000
	6.350000	-144.049	7.939010	66.495	64.586	0.000000
	6.366667	-144.082	7.963552	66.329	64.418	0.000000
	6.383333	-144.118	7.988212	66.162	64.249	0.000000
	6.400000	-144.152	8.011102	65.995	64.081	0.000000
	6.416667	-144.187	8.037177	65.829	63.912	0.000000
	6.433333	-144.226	8.066321	65.662	63.743	0.000000
	6.450000	-144.265	8.090862	65.495	63.574	0.000000
	6.466667	-144.308	8.114814	65.329	63.405	0.000000
	6.483333	-144.352	8.142070	65.162	63.236	0.000000
	6.500000	-144.401	8.166965	64.995	63.068	0.000000
	6.516667	-144.446	8.188321	64.829	62.9	0.000000
	6.533333	-144.496	8.211565	64.662	62.731	0.000000
	6.550000	-144.554	8.238585	64.495	62.563	0.000000
	6.566667	-144.609	8.261002	64.329	62.395	0.000000
	6.583333	-144.665	8.288494	64.162	62.225	0.000000
	6.600000	-144.725	8.313980	63.995	62.056	0.000000
	6.616667	-144.789	8.337813	63.829	61.887	0.000000
	6.633333	-144.852	8.364597	63.662	61.719	0.000000
	6.650000	-144.921	8.391262	63.495	61.551	0.000000
	6.666667	-144.992	8.414152	63.329	61.383	0.000000
	6.683333	-145.067	8.439874	63.162	61.213	0.000000
	6.700000	-145.144	8.466185	62.995	61.046	0.000000
	6.716667	-145.227	8.491081	62.829	60.876	0.000000
	6.733333	-145.309	8.514089	62.662	60.708	0.000000
	6.750000	-145.395	8.539339	62.495	60.54	0.000000
	6.766667	-145.487	8.563526	62.329	60.373	0.000000
	6.783333	-145.581	8.588304	62.162	60.203	0.000000
	6.800000	-145.677	8.611902	61.995	60.036	0.000000
	6.816667	-145.78	8.636562	61.829	59.867	0.000000
	6.833333	-145.884	8.661457	61.662	59.699	0.000000
	6.850000	-145.997	8.687179	61.495	59.531	0.000000
	6.866667	-146.113	8.711249	61.329	59.362	0.000000
	6.883333	-146.232	8.736970	61.162	59.195	0.000000
	6.900000	-146.353	8.760450	60.995	59.027	0.000000
	6.916667	-146.484	8.784638	60.829	58.859	0.000000
	6.933333	-146.622	8.807410	60.662	58.69	0.000000
	6.950000	-146.762	8.832187	60.495	58.523	0.000000
	6.966667	-146.909	8.858499	60.329	58.354	0.000000
	6.983333	-147.06	8.883631	60.162	58.187	0.000000
	7.000000	-147.218	8.909470	59.995	58.017	0.000000
	7.016667	-147.384	8.933540	59.829	57.849	0.000000
	7.033333	-147.556	8.956312	59.662	57.681	0.000000
	7.050000	-147.731	8.979556	59.495	57.512	0.000000
	7.066667	-147.918	9.006811	59.329	57.344	0.000000
	7.083333	-148.109	9.032533	59.162	57.176	0.000000
	7.100000	-148.308	9.056839	58.995	57.008	0.000000
	7.116667	-148.522	9.080672	58.829	56.84	0.000000
	7.133333	-148.748	9.107456	58.662	56.671	0.000000
	7.150000	-148.981	9.131172	58.495	56.504	0.000000
	7.166667	-149.218	9.155123	58.329	56.335	0.000000
	7.183333	-149.466	9.181317	58.162	56.166	0.000000
	7.200000	-149.72	9.203499	57.995	55.998	0.000000
	7.216667	-149.981	9.226507	57.829	55.831	0.000000
	7.233333	-150.245	9.250577	57.662	55.662	0.000000
	7.250000	-150.52	9.274646	57.495	55.495	0.000000
	7.266667	-150.794	9.296828	57.329	55.328	0.000000
	7.283333	-151.079	9.324556	57.162	55.16	0.000000
	7.300000	-151.373	9.348035	56.995	54.991	0.000000
	7.316667	-151.671	9.373757	56.829	54.823	0.000000
	7.333333	-151.973	9.395821	56.662	54.655	0.000000
	7.350000	-152.278	9.422015	56.495	54.487	0.000000
	7.366667	-152.587	9.445966	56.329	54.32	0.000000
	7.383333	-152.901	9.472632	56.162	54.151	0.000000
	7.400000	-153.222	9.496112	55.995	53.984	0.000000
	7.416667	-153.541	9.517232	55.829	53.815	0.000000
	7.433333	-153.862	9.542127	55.662	53.647	0.000000
	7.450000	-154.192	9.568557	55.495	53.479	0.000000
	7.466667	-154.523	9.592509	55.329	53.312	0.000000
	7.483333	-154.855	9.618702	55.162	53.144	0.000000
	7.500000	-155.185	9.641828	54.995	52.977	0.000000
	7.516667	-155.519	9.663892	54.829	52.808	0.000000
	7.533333	-155.846	9.685130	54.662	52.64	0.000000
	7.550000	-156.175	9.711442	54.495	52.472	0.000000
	7.566667	-156.509	9.735983	54.329	52.305	0.000000
	7.583333	-156.842	9.757221	54.162	52.136	0.000000
	7.600000	-157.174	9.783887	53.995	51.968	0.000000
	7.616667	-157.505	9.808547	53.829	51.799	0.000000
	7.633333	-157.833	9.830729	53.662	51.631	0.000000
	7.650000	-158.165	9.857394	53.495	51.464	0.000000
	7.666667	-158.502	9.883116	53.329	51.297	0.000000
	7.683333	-158.835	9.906124	53.162	51.129	0.000000
	7.700000	-159.166	9.927008	52.995	50.961	0.000000
	7.716667	-159.494	9.949780	52.829	50.792	0.000000
	7.733333	-159.822	9.973849	52.662	50.625	0.000000
	7.750000	-160.139	9.997093	52.495	50.458	0.000000
	7.766667	-160.456	10.0235	52.329	50.291	0.000000
	7.783333	-160.771	10.0479	52.162	50.124	0.000000
	7.800000	-161.077	10.0712	51.995	49.956	0.000000
	7.816667	-161.381	10.0946	51.829	49.788	0.000000
	7.833333	-161.68	10.1191	51.662	49.62	0.000000
	7.850000	-161.975	10.14	51.495	49.452	0.000000
	7.866667	-162.263	10.1653	51.329	49.285	0.000000
	7.883333	-162.549	10.1917	51.162	49.118	0.000000
	7.900000	-162.83	10.2138	50.995	48.949	0.000000
	7.916667	-163.101	10.2357	50.829	48.783	0.000000
	7.933333	-163.372	10.2613	50.662	48.616	0.000000
	7.950000	-163.638	10.2862	50.495	48.448	0.000000
	7.966667	-163.894	10.3088	50.329	48.281	0.000000
	7.983333	-164.149	10.3316	50.162	48.113	0.000000
	8.000000	-164.395	10.358	49.995	47.945	0.000000
	8.016667	-164.631	10.3823	49.829	47.778	0.000000
	8.033333	-164.874	10.405	49.662	47.61	0.000000
	8.050000	-165.108	10.4249	49.495	47.442	0.000000
	8.066667	-165.331	10.4496	49.329	47.273	0.000000
	8.083333	-165.549	10.4755	49.162	47.106	0.000000
	8.100000	-165.76	10.4974	48.995	46.938	0.000000
	8.116667	-165.963	10.5192	48.829	46.771	0.000000
	8.133333	-166.161	10.544	48.662	46.604	0.000000
	8.150000	-166.351	10.5691	48.495	46.436	0.000000
	8.166667	-166.532	10.5914	48.329	46.268	0.000000
	8.183333	-166.706	10.6137	48.162	46.1	0.000000
	8.200000	-166.877	10.6378	47.995	45.931	0.000000
	8.216667	-167.035	10.661	47.829	45.764	0.000000
	8.233333	-167.182	10.6819	47.662	45.597	0.000000
	8.250000	-167.328	10.7075	47.495	45.428	0.000000
	8.266667	-167.462	10.7339	47.329	45.261	0.000000
	8.283333	-167.58	10.7566	47.162	45.094	0.000000
	8.300000	-167.689	10.7792	46.995	44.926	0.000000
	8.316667	-167.792	10.8027	46.829	44.758	0.000000
	8.333333	-167.883	10.8244	46.662	44.59	0.000000
	8.350000	-167.967	10.8477	46.495	44.421	0.000000
	8.366667	-168.036	10.8746	46.329	44.253	0.000000
	8.383333	-168.095	10.8975	46.162	44.084	0.000000
	8.400000	-168.141	10.9209	45.995	43.915	0.000000
	8.416667	-168.181	10.9418	45.829	43.748	0.000000
	8.433333	-168.207	10.9622	45.662	43.58	0.000000
	8.450000	-168.222	10.9853	45.495	43.412	0.000000
	8.466667	-168.229	11.0139	45.329	43.244	0.000000
	8.483333	-168.222	11.036	45.162	43.076	0.000000
	8.500000	-168.202	11.0569	44.995	42.908	0.000000
	8.516667	-168.174	11.08	44.829	42.741	0.000000
	8.533333	-168.134	11.1036	44.662	42.573	0.000000
	8.550000	-168.08	11.1286	44.495	42.405	0.000000
	8.566667	-168.022	11.1527	44.329	42.237	0.000000
	8.583333	-167.95	11.1753	44.162	42.07	0.000000
	8.600000	-167.862	11.1949	43.995	41.902	0.000000
	8.616667	-167.768	11.2217	43.829	41.734	0.000000
	8.633333	-167.666	11.2413	43.662	41.566	0.000000
	8.650000	-167.543	11.2634	43.495	41.398	0.000000
	8.666667	-167.417	11.2893	43.329	41.231	0.000000
	8.683333	-167.279	11.3131	43.162	41.062	0.000000
	8.700000	-167.128	11.3349	42.995	40.894	0.000000
	8.716667	-166.965	11.3605	42.829	40.725	0.000000
	8.733333	-166.798	11.3844	42.662	40.556	0.000000
	8.750000	-166.612	11.4035	42.495	40.389	0.000000
	8.766667	-166.422	11.4262	42.329	40.221	0.000000
	8.783333	-166.225	11.4482	42.162	40.052	0.000000
	8.800000	-166.017	11.4685	41.995	39.884	0.000000
	8.816667	-165.798	11.4928	41.829	39.715	0.000000
	8.833333	-165.575	11.5183	41.662	39.547	0.000000
	8.850000	-165.344	11.5423	41.495	39.378	0.000000
	8.866667	-165.102	11.5653	41.329	39.211	0.000000
	8.883333	-164.856	11.5899	41.162	39.042	0.000000
	8.900000	-164.599	11.6111	40.995	38.874	0.000000
	8.916667	-164.334	11.6304	40.829	38.704	0.000000
	8.933333	-164.061	11.6527	40.662	38.536	0.000000
	8.950000	-163.779	11.6777	40.495	38.368	0.000000
	8.966667	-163.494	11.6997	40.329	38.2	0.000000
	8.983333	-163.21	11.7224	40.162	38.032	0.000000
	9.000000	-162.921	11.7452	39.995	37.864	0.000000
	9.016667	-162.624	11.7698	39.829	37.694	0.000000
	9.033333	-162.323	11.7915	39.662	37.525	0.000000
	9.050000	-162.031	11.8137	39.495	37.357	0.000000
	9.066667	-161.734	11.8365	39.329	37.189	0.000000
	9.083333	-161.434	11.8592	39.162	37.021	0.000000
	9.100000	-161.134	11.8837	38.995	36.851	0.000000
	9.116667	-160.836	11.9078	38.829	36.684	0.000000
	9.133333	-160.534	11.9279	38.662	36.515	0.000000
	9.150000	-160.233	11.9505	38.495	36.346	0.000000
	9.166667	-159.938	11.9733	38.329	36.178	0.000000
	9.183333	-159.636	11.9926	38.162	36.01	0.000000
	9.200000	-159.339	12.0155	37.995	35.84	0.000000
	9.216667	-159.043	12.0388	37.829	35.673	0.000000
	9.233333	-158.751	12.0615	37.662	35.504	0.000000
	9.250000	-158.452	12.0835	37.495	35.336	0.000000
	9.266667	-158.168	12.109	37.329	35.167	0.000000
	9.283333	-157.882	12.1309	37.162	35	0.000000
	9.300000	-157.593	12.1523	36.995	34.831	0.000000
	9.316667	-157.309	12.1764	36.829	34.663	0.000000
	9.333333	-157.028	12.1985	36.662	34.494	0.000000
	9.350000	-156.747	12.2208	36.495	34.326	0.000000
	9.366667	-156.471	12.2405	36.329	34.158	0.000000
	9.383333	-156.197	12.2605	36.162	33.989	0.000000
	9.400000	-155.919	12.2841	35.995	33.821	0.000000
	9.416667	-155.648	12.3098	35.829	33.653	0.000000
	9.433333	-155.384	12.3316	35.662	33.485	0.000000
	9.450000	-155.119	12.3504	35.495	33.318	0.000000
	9.466667	-154.855	12.3749	35.329	33.15	0.000000
	9.483333	-154.6	12.3986	35.162	32.981	0.000000
	9.500000	-154.339	12.4183	34.995	32.812	0.000000
	9.516667	-154.077	12.4422	34.829	32.645	0.000000
	9.533333	-153.823	12.4651	34.662	32.476	0.000000
	9.550000	-153.57	12.4855	34.495	32.307	0.000000
	9.566667	-153.316	12.5084	34.329	32.139	0.000000
	9.583333	-153.067	12.5297	34.162	31.972	0.000000
	9.600000	-152.819	12.5499	33.995	31.803	0.000000
	9.616667	-152.57	12.57	33.829	31.636	0.000000
	9.633333	-152.327	12.5943	33.662	31.468	0.000000
	9.650000	-152.087	12.6179	33.495	31.301	0.000000
	9.666667	-151.846	12.6366	33.329	31.132	0.000000
	9.683333	-151.601	12.6596	33.162	30.964	0.000000
	9.700000	-151.366	12.6855	32.995	30.797	0.000000
	9.716667	-151.129	12.7074	32.829	30.629	0.000000
	9.733333	-150.892	12.7282	32.662	30.461	0.000000
	9.750000	-150.663	12.7506	32.495	30.292	0.000000
	9.766667	-150.432	12.7718	32.329	30.125	0.000000
	9.783333	-150.203	12.7937	32.162	29.957	0.000000
	9.800000	-149.972	12.8155	31.995	29.789	0.000000
	9.816667	-149.743	12.8344	31.829	29.62	0.000000
	9.833333	-149.515	12.8553	31.662	29.453	0.000000
	9.850000	-149.293	12.8807	31.495	29.285	0.000000
	9.866667	-149.071	12.9016	31.329	29.119	0.000000
	9.883333	-148.848	12.9222	31.162	28.951	0.000000
	9.900000	-148.628	12.9458	30.995	28.783	0.000000
	9.916667	-148.416	12.9686	30.829	28.615	0.000000
	9.933333	-148.199	12.9898	30.662	28.448	0.000000
	9.950000	-147.983	13.0135	30.495	28.28	0.000000
	9.966667	-147.771	13.0342	30.329	28.111	0.000000
	9.983333	-147.561	13.0506	30.162	27.944	0.000000
	10	-147.354	13.074	29.995	27.776	0.000000
	10.0167	-147.147	13.095	29.829	27.608	0.000000
	10.0333	-146.942	13.1175	29.662	27.439	0.000000
	10.05	-146.74	13.1406	29.495	27.272	0.000000
	10.0667	-146.54	13.1651	29.329	27.105	0.000000
	10.0833	-146.34	13.1836	29.162	26.937	0.000000
	10.1	-146.138	13.2053	28.995	26.769	0.000000
	10.1167	-145.946	13.2276	28.829	26.6	0.000000
	10.1333	-145.757	13.2508	28.662	26.432	0.000000
	10.15	-145.567	13.2712	28.495	26.265	0.000000
	10.1667	-145.38	13.2932	28.329	26.098	0.000000
	10.1833	-145.198	13.3131	28.162	25.931	0.000000
	10.2	-145.014	13.333	27.995	25.762	0.000000
	10.2167	-144.832	13.3573	27.829	25.595	0.000000
	10.2333	-144.653	13.3776	27.662	25.427	0.000000
	10.25	-144.475	13.3975	27.495	25.259	0.000000
	10.2667	-144.299	13.4208	27.329	25.092	0.000000
	10.2833	-144.131	13.4426	27.162	24.925	0.000000
	10.3	-143.963	13.4603	26.995	24.757	0.000000
	10.3167	-143.795	13.4817	26.829	24.589	0.000000
	10.3333	-143.633	13.5056	26.662	24.422	0.000000
	10.35	-143.471	13.5284	26.495	24.256	0.000000
	10.3667	-143.311	13.549	26.329	24.088	0.000000
	10.3833	-143.152	13.5723	26.162	23.921	0.000000
	10.4	-143	13.5921	25.995	23.755	0.000000
	10.4167	-142.848	13.6132	25.829	23.589	0.000000
	10.4333	-142.702	13.6366	25.662	23.421	0.000000
	10.45	-142.555	13.6551	25.495	23.254	0.000000
	10.4667	-142.41	13.6759	25.329	23.086	0.000000
	10.4833	-142.27	13.6986	25.162	22.919	0.000000
	10.5	-142.135	13.7188	24.995	22.752	0.000000
	10.5167	-141.997	13.737	24.829	22.585	0.000000
	10.5333	-141.861	13.7625	24.662	22.417	0.000000
	10.55	-141.734	13.7865	24.495	22.25	0.000000
	10.5667	-141.605	13.8045	24.329	22.084	0.000000
	10.5833	-141.478	13.8243	24.162	21.917	0.000000
	10.6	-141.357	13.847	23.995	21.75	0.000000
	10.6167	-141.239	13.8693	23.829	21.583	0.000000
	10.6333	-141.117	13.8873	23.662	21.415	0.000000
	10.65	-141.004	13.9102	23.495	21.248	0.000000
	10.6667	-140.885	13.9254	23.329	21.082	0.000000
	10.6833	-140.775	13.9572	23.162	20.914	0.000000
	10.7	-140.67	13.9832	22.995	20.748	0.000000
	10.7167	-140.57	14.0028	22.829	20.582	0.000000
	10.7333	-140.466	14.0173	22.662	20.416	0.000000
	10.75	-140.363	14.0336	22.495	20.25	0.000000
	10.7667	-140.258	14.05	22.329	20.084	0.000000
	10.7833	-140.156	14.0677	22.162	19.917	0.000000
	10.8	-140.054	14.0873	21.995	19.751	0.000000
	10.8167	-139.957	14.1079	21.829	19.585	0.000000
	10.8333	-139.863	14.1294	21.662	19.419	0.000000
	10.85	-139.768	14.1529	21.495	19.253	0.000000
	10.8667	-139.679	14.1774	21.329	19.087	0.000000
	10.8833	-139.589	14.1961	21.162	18.92	0.000000
	10.9	-139.505	14.2187	20.995	18.752	0.000000
	10.9167	-139.423	14.2388	20.829	18.586	0.000000
	10.9333	-139.345	14.2596	20.662	18.419	0.000000
	10.95	-139.267	14.2808	20.495	18.252	0.000000
	10.9667	-139.191	14.3057	20.329	18.085	0.000000
	10.9833	-139.117	14.3273	20.162	17.918	0.000000
	11	-139.045	14.3484	19.995	17.751	0.000000
	11.0167	-138.974	14.3685	19.829	17.584	0.000000
	11.0333	-138.903	14.3878	19.662	17.417	0.000000
	11.05	-138.836	14.4093	19.495	17.251	0.000000
	11.0667	-138.77	14.4308	19.329	17.083	0.000000
	11.0833	-138.709	14.4528	19.162	16.916	0.000000
	11.1	-138.641	14.4712	18.995	16.75	0.000000
	11.1167	-138.58	14.4926	18.829	16.583	0.000000
	11.1333	-138.521	14.5151	18.662	16.416	0.000000
	11.15	-138.457	14.5351	18.495	16.249	0.000000
	11.1667	-138.397	14.5545	18.329	16.082	0.000000
	11.1833	-138.343	14.577	18.162	15.916	0.000000
	11.2	-138.288	14.5975	17.995	15.749	0.000000
	11.2167	-138.231	14.6174	17.829	15.582	0.000000
	11.2333	-138.177	14.639	17.662	15.416	0.000000
	11.25	-138.123	14.6572	17.495	15.248	0.000000
	11.2667	-138.073	14.6785	17.329	15.082	0.000000
	11.2833	-138.02	14.7005	17.162	14.917	0.000000
	11.3	-137.969	14.722	16.995	14.751	0.000000
	11.3167	-137.92	14.7387	16.829	14.584	0.000000
	11.3333	-137.873	14.7626	16.662	14.418	0.000000
	11.35	-137.825	14.7832	16.495	14.25	0.000000
	11.3667	-137.777	14.8021	16.329	14.084	0.000000
	11.3833	-137.729	14.8221	16.162	13.918	0.000000
	11.4	-137.687	14.8448	15.995	13.75	0.000000
	11.4167	-137.643	14.8633	15.829	13.582	0.000000
	11.4333	-137.599	14.8836	15.662	13.415	0.000000
	11.45	-137.556	14.9053	15.495	13.248	0.000000
	11.4667	-137.512	14.9255	15.329	13.082	0.000000
	11.4833	-137.47	14.9448	15.162	12.916	0.000000
	11.5	-137.427	14.9667	14.995	12.749	0.000000
	11.5167	-137.39	14.9876	14.829	12.582	0.000000
	11.5333	-137.347	15.0064	14.662	12.416	0.000000
	11.55	-137.308	15.0286	14.495	12.25	0.000000
	11.5667	-137.272	15.0474	14.329	12.083	0.000000
	11.5833	-137.232	15.0661	14.162	11.917	0.000000
	11.6	-137.191	15.0874	13.995	11.75	0.000000
	11.6167	-137.158	15.1097	13.829	11.584	0.000000
	11.6333	-137.121	15.1299	13.662	11.418	0.000000
	11.65	-137.083	15.1478	13.495	11.251	0.000000
	11.6667	-137.049	15.1678	13.329	11.084	0.000000
	11.6833	-137.012	15.1877	13.162	10.918	0.000000
	11.7	-136.978	15.2093	12.995	10.752	0.000000
	11.7167	-136.943	15.2279	12.829	10.586	0.000000
	11.7333	-136.908	15.2481	12.662	10.42	0.000000
	11.75	-136.873	15.2678	12.495	10.253	0.000000
	11.7667	-136.84	15.2901	12.329	10.087	0.000000
	11.7833	-136.808	15.3105	12.162	9.921000	0.000000
	11.8	-136.776	15.3304	11.995	9.755000	0.000000
	11.8167	-136.743	15.3518	11.829	9.588000	0.000000
	11.8333	-136.714	15.371	11.662	9.420000	0.000000
	11.85	-136.681	15.389	11.495	9.254000	0.000000
	11.8667	-136.648	15.4107	11.329	9.088000	0.000000
	11.8833	-136.618	15.4307	11.162	8.921000	0.000000
	11.9	-136.587	15.4489	10.995	8.755000	0.000000
	11.9167	-136.558	15.4706	10.829	8.589000	0.000000
	11.9333	-136.529	15.4907	10.662	8.424000	0.000000
	11.95	-136.497	15.5101	10.495	8.258000	0.000000
	11.9667	-136.467	15.5292	10.329	8.091000	0.000000
	11.9833	-136.439	15.5506	10.162	7.925000	0.000000
	12	-136.411	15.5698	9.995000	7.759000	0.000000
	12.0167	-136.383	15.5887	9.829000	7.593000	0.000000
	12.0333	-136.356	15.6104	9.662000	7.426000	0.000000
	12.05	-136.327	15.632	9.495000	7.259000	0.000000
	12.0667	-136.299	15.6517	9.329000	7.093000	0.000000
	12.0833	-136.268	15.6717	9.162000	6.926000	0.000000
	12.1	-136.241	15.6899	8.995000	6.761000	0.000000
	12.1167	-136.214	15.7062	8.829000	6.596000	0.000000
	12.1333	-136.187	15.7252	8.662000	6.429000	0.000000
	12.15	-136.16	15.7452	8.495000	6.264000	0.000000
	12.1667	-136.137	15.7665	8.329000	6.097000	0.000000
	12.1833	-136.108	15.7867	8.162000	5.933000	0.000000
	12.2	-136.081	15.8089	7.995000	5.767000	0.000000
	12.2167	-136.055	15.8298	7.829000	5.601000	0.000000
	12.2333	-136.026	15.8473	7.662000	5.435000	0.000000
	12.25	-136.002	15.8682	7.495000	5.269000	0.000000
	12.2667	-135.977	15.8865	7.329000	5.104000	0.000000
	12.2833	-135.951	15.9039	7.162000	4.937000	0.000000
	12.3	-135.923	15.9244	6.995000	4.771000	0.000000
	12.3167	-135.899	15.9462	6.829000	4.606000	0.000000
	12.3333	-135.874	15.9643	6.662000	4.441000	0.000000
	12.35	-135.849	15.9849	6.495000	4.275000	0.000000
	12.3667	-135.823	16.0037	6.329000	4.110000	0.000000
	12.3833	-135.799	16.0234	6.162000	3.943000	0.000000
	12.4	-135.776	16.0437	5.995000	3.777000	0.000000
	12.4167	-135.754	16.0648	5.829000	3.611000	0.000000
	12.4333	-135.729	16.0833	5.662000	3.445000	0.000000
	12.45	-135.704	16.1026	5.495000	3.280000	0.000000
	12.4667	-135.681	16.1223	5.329000	3.115000	0.000000
	12.4833	-135.655	16.1405	5.162000	2.949000	0.000000
	12.5	-135.632	16.1595	4.995000	2.783000	0.000000
	12.5167	-135.609	16.1797	4.829000	2.617000	0.000000
	12.5333	-135.586	16.1985	4.662000	2.452000	0.000000
	12.55	-135.563	16.2178	4.495000	2.286000	0.000000
	12.5667	-135.539	16.2382	4.329000	2.119000	0.000000
	12.5833	-135.515	16.2576	4.162000	1.954000	0.000000
	12.6	-135.49	16.278	3.995000	1.788000	0.000000
	12.6167	-135.467	16.2975	3.829000	1.624000	0.000000
	12.6333	-135.446	16.3162	3.662000	1.457000	0.000000
	12.65	-135.421	16.3345	3.495000	1.291000	0.000000
	12.6667	-135.4	16.3549	3.329000	1.126000	0.000000
	12.6833	-135.38	16.3752	3.162000	0.959000	0.000000
	12.7	-135.357	16.3943	2.995000	0.793000	0.000000
	12.7167	-135.333	16.415	2.829000	0.628000	0.000000
	12.7333	-135.312	16.4355	2.662000	0.463000	0.000000
	12.75	-135.291	16.4519	2.495000	0.297000	0.000000
	12.7667	-135.267	16.4694	2.329000	0.131000	0.000000
	12.7833	-135.246	16.4914	2.162000	-0.035000	0.000000
	12.8	-135.222	16.5081	1.995000	-0.200000	0.000000
	12.8167	-135.201	16.5277	1.829000	-0.366000	0.000000
	12.8333	-135.18	16.5481	1.662000	-0.533000	0.000000
	12.85	-135.157	16.5671	1.495000	-0.698000	0.000000
	12.8667	-135.137	16.5865	1.329000	-0.865000	0.000000
[...]
	74.8333	-116.683	4.253269	84.17	81.103	0.000000
	74.8667	-116.533	4.223182	84.337	81.271	0.000000
	74.9	-116.379	4.197224	84.504	81.439	0.000000
	74.9333	-116.229	4.175514	84.67	81.608	0.000000
	74.9667	-116.079	4.146017	84.837	81.778	0.000000
	75	-115.924	4.118171	85.004	81.946	0.000000
	75.0333	-115.769	4.094338	85.17	82.115	0.000000
	75.0667	-115.619	4.066020	85.337	82.283	0.000000
	75.1	-115.469	4.038883	85.504	82.451	0.000000
	75.1333	-115.32	4.009267	85.67	82.619	0.000000
	75.1667	-115.165	3.983310	85.837	82.787	0.000000
	75.2	-115.016	3.960066	86.004	82.957	0.000000
	75.2333	-114.867	3.930097	86.17	83.125	0.000000
	75.2667	-114.72	3.900246	86.337	83.294	0.000000
	75.3	-114.574	3.876412	86.504	83.463	0.000000
	75.3333	-114.427	3.851044	86.67	83.631	0.000000
	75.3667	-114.285	3.821075	86.837	83.8	0.000000
	75.4	-114.139	3.793584	87.004	83.968	0.000000
	75.4333	-113.996	3.766446	87.17	84.137	0.000000
	75.4667	-113.853	3.743202	87.337	84.305	0.000000
	75.5	-113.715	3.712171	87.504	84.474	0.000000
	75.5333	-113.576	3.683972	87.67	84.641	0.000000
	75.5667	-113.439	3.659194	87.837	84.81	0.000000
	75.6	-113.308	3.632293	88.004	84.979	0.000000
	75.6333	-113.177	3.603621	88.17	85.147	0.000000
	75.6667	-113.051	3.579551	88.337	85.315	0.000000
	75.7	-112.932	3.555600	88.504	85.483	0.000000
	75.7333	-112.807	3.520675	88.67	85.652	0.000000
	75.7667	-112.694	3.497549	88.837	85.82	0.000000
	75.8	-112.583	3.468760	89.004	85.989	0.000000
	75.8333	-112.476	3.441032	89.17	86.157	0.000000
	75.8667	-112.37	3.416019	89.337	86.327	0.000000
	75.9	-112.27	3.386875	89.504	86.496	0.000000
	75.9333	-112.178	3.361508	89.67	86.664	0.000000
	75.9667	-112.093	3.337556	89.837	86.833	0.000000
	76	-112.013	3.305935	90.004	87.001	0.000000
	76.0333	-111.935	3.275258	90.17	87.17	0.000000
	76.0667	-111.865	3.253076	90.337	87.337	0.000000
	76.1	-111.814	3.225702	90.504	87.507	0.000000
	76.1333	-111.766	3.196441	90.67	87.675	0.000000
	76.1667	-111.714	3.166944	90.837	87.844	0.000000
	76.2	-111.686	3.142166	91.004	88.012	0.000000
	76.2333	-111.669	3.113967	91.17	88.179	0.000000
	76.2667	-111.664	3.090251	91.337	88.348	0.000000
	76.3	-111.671	3.061344	91.504	88.517	0.000000
	76.3333	-111.691	3.029251	91.67	88.687	0.000000
	76.3667	-111.729	3.004591	91.837	88.856	0.000000
	76.4	-111.781	2.979105	92.004	89.025	0.000000
	76.4333	-111.873	2.945714	92.17	89.194	0.000000
	76.4667	-111.986	2.921999	92.337	89.362	0.000000
	76.5	-112.12	2.894507	92.504	89.533	0.000000
	76.5333	-112.313	2.869493	92.67	89.702	0.000000
	76.5667	-112.54	2.838698	92.837	89.87	0.000000
	76.6	-112.811	2.811679	93.004	90.039	0.000000
	76.6333	-113.143	2.785013	93.17	90.209	0.000000
	76.6667	-113.525	2.757640	93.337	90.379	0.000000
	76.7	-113.972	2.728614	93.504	90.548	0.000000
	76.7333	-114.473	2.705489	93.67	90.718	0.000000
	76.7667	-115.05	2.675755	93.837	90.887	0.000000
	76.8	-115.69	2.646966	94.004	91.057	0.000000
	76.8333	-116.397	2.621362	94.17	91.227	0.000000
	76.8667	-117.168	2.593871	94.337	91.398	0.000000
	76.9	-117.98	2.565200	94.504	91.569	0.000000
	76.9333	-118.83	2.540186	94.67	91.737	0.000000
	76.9667	-119.7	2.509981	94.837	91.908	0.000000
	77	-120.572	2.481427	95.004	92.078	0.000000
	77.0333	-121.427	2.455116	95.17	92.248	0.000000
	77.0667	-122.253	2.426799	95.337	92.42	0.000000
	77.1	-123.044	2.395059	95.504	92.59	0.000000
	77.1333	-123.787	2.371108	95.67	92.76	0.000000
	77.1667	-124.481	2.345268	95.837	92.929	0.000000
	77.2	-125.125	2.314119	96.004	93.1	0.000000
	77.2333	-125.714	2.286982	96.17	93.27	0.000000
	77.2667	-126.258	2.261496	96.337	93.439	0.000000
	77.3	-126.757	2.232943	96.504	93.608	0.000000
	77.3333	-127.207	2.204035	96.67	93.777	0.000000
	77.3667	-127.623	2.178668	96.837	93.948	0.000000
	77.4	-127.998	2.150586	97.004	94.117	0.000000
	77.4333	-128.335	2.122741	97.17	94.285	0.000000
	77.4667	-128.643	2.096311	97.337	94.454	0.000000
	77.5	-128.923	2.066696	97.504	94.622	0.000000
	77.5333	-129.173	2.044986	97.67	94.791	0.000000
	77.5667	-129.4	2.008763	97.837	94.96	0.000000
	77.6	-129.609	1.981390	98.004	95.129	0.000000
	77.6333	-129.795	1.953427	98.17	95.299	0.000000
	77.6667	-129.966	1.928059	98.337	95.467	0.000000
	77.7	-130.119	1.899270	98.504	95.636	0.000000
	77.7333	-130.262	1.866941	98.67	95.806	0.000000
	77.7667	-130.39	1.839803	98.837	95.974	0.000000
	77.8	-130.506	1.814553	99.004	96.142	0.000000
	77.8333	-130.622	1.788832	99.17	96.309	0.000000
	77.8667	-130.722	1.757093	99.337	96.479	0.000000
	77.9	-130.822	1.732787	99.504	96.647	0.000000
	77.9333	-130.912	1.706357	99.67	96.817	0.000000
	77.9667	-130.99	1.672377	99.837	96.984	0.000000
	78	-131.067	1.649015	100.004	97.154	0.000000
	78.0333	-131.142	1.621287	100.17	97.322	0.000000
	78.0667	-131.21	1.586717	100.337	97.49	0.000000
	78.1	-131.272	1.563591	100.504	97.658	0.000000
	78.1333	-131.343	1.536571	100.67	97.826	0.000000
	78.1667	-131.399	1.504006	100.837	97.996	0.000000
	78.2	-131.46	1.476987	101.004	98.164	0.000000
	78.2333	-131.512	1.452091	101.17	98.332	0.000000
	78.2667	-131.568	1.421060	101.337	98.501	0.000000
	78.3	-131.617	1.394630	101.504	98.668	0.000000
	78.3333	-131.667	1.370207	101.67	98.838	0.000000
	78.3667	-131.72	1.340473	101.837	99.008	0.000000
	78.4	-131.765	1.304841	102.004	99.176	0.000000
	78.4333	-131.811	1.284547	102.17	99.344	0.000000
	78.4667	-131.856	1.251746	102.337	99.513	0.000000
	78.5	-131.901	1.225434	102.504	99.682	0.000000
	78.5333	-131.945	1.200420	102.67	99.851	0.000000
	78.5667	-131.987	1.168563	102.837	100.019	0.000000
	78.6	-132.025	1.134583	103.004	100.188	0.000000
	78.6333	-132.066	1.113463	103.17	100.356	0.000000
	78.6667	-132.107	1.088449	103.337	100.526	0.000000
	78.7	-132.148	1.054350	103.504	100.694	0.000000
	78.7333	-132.183	1.026859	103.67	100.862	0.000000
	78.7667	-132.224	1.000429	103.837	101.031	0.000000
	78.8	-132.268	0.970932	104.004	101.2	0.000000
	78.8333	-132.305	0.944502	104.17	101.368	0.000000
	78.8667	-132.34	0.914297	104.337	101.537	0.000000
	78.9	-132.382	0.885154	104.504	101.705	0.000000
	78.9333	-132.416	0.856364	104.67	101.873	0.000000
	78.9667	-132.45	0.828401	104.837	102.042	0.000000
	79	-132.49	0.796544	105.004	102.212	0.000000
	79.0333	-132.524	0.768581	105.17	102.379	0.000000
	79.0667	-132.56	0.745573	105.337	102.547	0.000000
	79.1	-132.599	0.712182	105.504	102.716	0.000000
	79.1333	-132.635	0.682331	105.67	102.885	0.000000
	79.1667	-132.665	0.654013	105.837	103.052	0.000000
	79.2	-132.708	0.629707	106.004	103.221	0.000000
	79.2333	-132.741	0.598440	106.17	103.39	0.000000
	79.2667	-132.772	0.547233	106.337	103.558	0.000000
	79.3	-132.807	0.537086	106.504	103.726	0.000000
	79.3333	-132.843	0.509949	106.67	103.896	0.000000
	79.3667	-132.875	0.481867	106.837	104.063	0.000000
	79.4	-132.904	0.460629	107.004	104.232	0.000000
	79.4333	-132.943	0.429598	107.17	104.4	0.000000
	79.4667	-132.973	0.397859	107.337	104.568	0.000000
	79.5	-133.008	0.369070	107.504	104.737	0.000000
	79.5333	-133.041	0.338747	107.67	104.906	0.000000
	79.5667	-133.071	0.311727	107.837	105.074	0.000000
	79.6	-133.102	0.283882	108.004	105.243	0.000000
	79.6333	-133.14	0.256744	108.17	105.413	0.000000
	79.6667	-133.171	0.224651	108.337	105.583	0.000000
	79.7	-133.197	0.197278	108.504	105.752	0.000000
	79.7333	-133.228	0.169314	108.67	105.92	0.000000
	79.7667	-133.265	0.141823	108.837	106.088	0.000000
	79.8	-133.292	0.108786	109.004	106.257	0.000000
	79.8333	-133.325	0.080233	109.17	106.425	0.000000
	79.8667	-133.356	0.048965	109.337	106.594	0.000000
	79.9	-133.381	0.022536	109.504	106.761	0.000000
	79.9333	-133.414	-0.002478	109.67	106.928	0.000000
	79.9667	-133.451	-0.030795	109.837	107.096	0.000000
	80	-133.479	-0.065366	110.004	107.265	0.000000
	80.0333	-133.508	-0.091324	110.17	107.434	0.000000
	80.0667	-133.541	-0.118225	110.337	107.603	0.000000
	80.1	-133.57	-0.151852	110.504	107.771	0.000000
	80.1333	-133.594	-0.179461	110.67	107.941	0.000000
	80.1667	-133.628	-0.207071	110.837	108.109	0.000000
	80.2	-133.658	-0.237866	111.004	108.278	0.000000
	80.2333	-133.684	-0.265711	111.17	108.447	0.000000
	80.2667	-133.715	-0.296152	111.337	108.615	0.000000
	80.3	-133.743	-0.321756	111.504	108.784	0.000000
	80.3333	-133.767	-0.353141	111.67	108.952	0.000000
	80.3667	-133.792	-0.383582	111.837	109.121	0.000000
	80.4	-133.826	-0.413316	112.004	109.29	0.000000
	80.4333	-133.848	-0.441869	112.17	109.458	0.000000
	80.4667	-133.877	-0.467945	112.337	109.626	0.000000
	80.5	-133.906	-0.499802	112.504	109.796	0.000000
	80.5333	-133.931	-0.521512	112.67	109.965	0.000000
	80.5667	-133.955	-0.557734	112.837	110.133	0.000000
	80.6	-133.984	-0.584872	113.004	110.3	0.000000
	80.6333	-134.006	-0.617201	113.17	110.47	0.000000
	80.6667	-134.027	-0.643276	113.337	110.639	0.000000
	80.7	-134.058	-0.667818	113.504	110.807	0.000000
	80.7333	-134.079	-0.703805	113.67	110.975	0.000000
	80.7667	-134.102	-0.733184	113.837	111.144	0.000000
	80.8	-134.127	-0.755720	114.004	111.312	0.000000
	80.8333	-134.144	-0.790999	114.17	111.481	0.000000
	80.8667	-134.152	-0.816130	114.337	111.649	0.000000
	80.9	-134.154	-0.845863	114.504	111.817	0.000000
	80.9333	-133.988	-0.879962	114.67	111.984	0.000000
	80.9667	-133.871	-0.909342	114.837	112.153	0.000000
	81	-133.876	-0.933883	115.004	112.322	0.000000
	81.0333	-133.863	-0.965386	115.17	112.491	0.000000
	81.0667	-133.796	-0.995002	115.337	112.659	0.000000
	81.1	-133.78	-1.022021	115.504	112.827	0.000000
	81.1333	-133.77	-1.051282	115.67	112.995	0.000000
	81.1667	-133.758	-1.082195	115.837	113.163	0.000000
	81.2	-133.748	-1.112755	116.004	113.332	0.000000
	81.2333	-133.758	-1.139774	116.17	113.5	0.000000
	81.2667	-133.788	-1.169861	116.337	113.668	0.000000
	81.3	-133.772	-1.199595	116.504	113.837	0.000000
	81.3333	-133.779	-1.226378	116.67	114.006	0.000000
	81.3667	-133.798	-1.261775	116.837	114.175	0.000000
	81.4	-133.838	-1.290564	117.004	114.342	0.000000
	81.4333	-133.89	-1.317584	117.17	114.51	0.000000
	81.4667	-133.912	-1.346255	117.337	114.679	0.000000
	81.5	-133.923	-1.375516	117.504	114.847	0.000000
	81.5333	-133.951	-1.407137	117.67	115.016	0.000000
	81.5667	-133.998	-1.434747	117.837	115.184	0.000000
	81.6	-134.046	-1.466722	118.004	115.351	0.000000
	81.6333	-134.085	-1.491263	118.17	115.52	0.000000
	81.6667	-134.099	-1.524772	118.337	115.689	0.000000
	81.7	-134.129	-1.555803	118.504	115.857	0.000000
	81.7333	-134.179	-1.583295	118.67	116.024	0.000000
	81.7667	-134.233	-1.614444	118.837	116.192	0.000000
	81.8	-134.274	-1.644295	119.004	116.36	0.000000
	81.8333	-134.307	-1.667657	119.17	116.529	0.000000
	81.8667	-134.332	-1.699632	119.337	116.697	0.000000
	81.9	-134.358	-1.731725	119.504	116.865	0.000000
	81.9333	-134.403	-1.761222	119.67	117.033	0.000000
	81.9667	-134.442	-1.788596	119.837	117.202	0.000000
	82	-134.49	-1.820807	120.004	117.372	0.000000
	82.0333	-134.521	-1.849360	120.17	117.54	0.000000
	82.0667	-134.549	-1.874610	120.337	117.709	0.000000
	82.1	-134.585	-1.909417	120.504	117.877	0.000000
	82.1333	-134.622	-1.938442	120.67	118.046	0.000000
	82.1667	-134.656	-1.965697	120.837	118.214	0.000000
	82.2	-134.691	-1.996493	121.004	118.384	0.000000
	82.2333	-134.727	-2.030473	121.17	118.551	0.000000
	82.2667	-134.768	-2.053835	121.337	118.72	0.000000
	82.3	-134.791	-2.086754	121.504	118.889	0.000000
	82.3333	-134.821	-2.121325	121.67	119.057	0.000000
	82.3667	-134.863	-2.148108	121.837	119.226	0.000000
	82.4	-134.899	-2.176662	122.004	119.395	0.000000
	82.4333	-134.937	-2.215244	122.17	119.563	0.000000
	82.4667	-134.968	-2.236600	122.337	119.73	0.000000
	82.5	-135.004	-2.261260	122.504	119.899	0.000000
	82.5333	-135.034	-2.297954	122.67	120.067	0.000000
	82.5667	-135.071	-2.329458	122.837	120.236	0.000000
	82.6	-135.11	-2.355533	123.004	120.404	0.000000
	82.6333	-135.141	-2.386800	123.17	120.572	0.000000
	82.6667	-135.172	-2.417359	123.337	120.74	0.000000
	82.7	-135.208	-2.446975	123.504	120.909	0.000000
	82.7333	-135.237	-2.475410	123.67	121.077	0.000000
	82.7667	-135.271	-2.507739	123.837	121.245	0.000000
	82.8	-135.305	-2.538062	124.004	121.414	0.000000
	82.8333	-135.335	-2.565790	124.17	121.583	0.000000
	82.8667	-135.365	-2.596585	124.337	121.751	0.000000
	82.9	-135.397	-2.627026	124.504	121.918	0.000000
	82.9333	-135.437	-2.653219	124.67	122.087	0.000000
	82.9667	-135.465	-2.689678	124.837	122.255	0.000000
	83	-135.497	-2.717877	125.004	122.424	0.000000
	83.0333	-135.525	-2.745133	125.17	122.592	0.000000
	83.0667	-135.561	-2.782299	125.337	122.762	0.000000
	83.1	-135.593	-2.810735	125.504	122.928	0.000000
	83.1333	-135.623	-2.834923	125.67	123.097	0.000000
	83.1667	-135.654	-2.869375	125.837	123.265	0.000000
	83.2	-135.69	-2.899227	126.004	123.434	0.000000
	83.2333	-135.723	-2.925066	126.17	123.603	0.000000
	83.2667	-135.753	-2.963295	126.337	123.77	0.000000
	83.3	-135.786	-2.991730	126.504	123.936	0.000000
	83.3333	-135.814	-3.018514	126.67	124.106	0.000000
	83.3667	-135.851	-3.046831	126.837	124.275	0.000000
	83.4	-135.882	-3.077980	127.004	124.443	0.000000
	83.4333	-135.913	-3.102404	127.17	124.612	0.000000
	83.4667	-135.946	-3.133553	127.337	124.781	0.000000
	83.5	-135.979	-3.170955	127.504	124.95	0.000000
	83.5333	-136.008	-3.199273	127.67	125.117	0.000000
	83.5667	-136.04	-3.224640	127.837	125.284	0.000000
	83.6	-136.074	-3.257205	128.004	125.453	0.000000
	83.6333	-136.101	-3.284697	128.17	125.622	0.000000
	83.6667	-136.131	-3.318796	128.337	125.789	0.000000
	83.7	-136.168	-3.352776	128.504	125.957	0.000000
	83.7333	-136.193	-3.378262	128.67	126.127	0.000000
	83.7667	-136.221	-3.408821	128.837	126.295	0.000000
	83.8	-136.253	-3.439380	129.004	126.463	0.000000
	83.8333	-136.285	-3.472299	129.17	126.631	0.000000
	83.8667	-136.316	-3.498375	129.337	126.8	0.000000
	83.9	-136.344	-3.530940	129.504	126.969	0.000000
	83.9333	-136.376	-3.553948	129.67	127.137	0.000000
	83.9667	-136.402	-3.594064	129.837	127.305	0.000000
	84	-136.435	-3.623207	130.004	127.475	0.000000
	84.0333	-136.462	-3.657660	130.17	127.642	0.000000
	84.0667	-136.498	-3.681966	130.337	127.811	0.000000
	84.1	-136.529	-3.711463	130.504	127.979	0.000000
	84.1333	-136.556	-3.743556	130.67	128.148	0.000000
	84.1667	-136.586	-3.773761	130.837	128.316	0.000000
	84.2	-136.62	-3.802787	131.004	128.485	0.000000
	84.2333	-136.645	-3.832874	131.17	128.653	0.000000
	84.2667	-136.677	-3.858595	131.337	128.822	0.000000
	84.3	-136.706	-3.896824	131.504	128.99	0.000000
	84.3333	-136.74	-3.928327	131.67	129.158	0.000000
	84.3667	-136.769	-3.959122	131.837	129.327	0.000000
	84.4	-136.8	-3.984136	132.004	129.496	0.000000
	84.4333	-136.829	-4.020476	132.17	129.662	0.000000
	84.4667	-136.86	-4.048440	132.337	129.83	0.000000
	84.5	-136.885	-4.078763	132.504	130	0.000000
	84.5333	-136.917	-4.112508	132.67	130.167	0.000000
	84.5667	-136.949	-4.139291	132.837	130.337	0.000000
	84.6	-136.973	-4.173390	133.004	130.505	0.000000
	84.6333	-137.004	-4.200292	133.17	130.673	0.000000
	84.6667	-137.035	-4.229081	133.337	130.841	0.000000
	84.7	-137.057	-4.266366	133.504	131.009	0.000000
	84.7333	-137.093	-4.288076	133.67	131.179	0.000000
	84.7667	-137.121	-4.322882	133.837	131.347	0.000000
	84.8	-137.152	-4.356509	134.004	131.515	0.000000
	84.8333	-137.179	-4.385063	134.17	131.684	0.000000
	84.8667	-137.208	-4.415386	134.337	131.851	0.000000
	84.9	-137.236	-4.448777	134.504	132.021	0.000000
	84.9333	-137.265	-4.477448	134.67	132.189	0.000000
	84.9667	-137.297	-4.506591	134.837	132.357	0.000000
	85	-137.32	-4.537740	135.004	132.524	0.000000
	85.0333	-137.349	-4.568890	135.17	132.691	0.000000
	85.0667	-137.385	-4.600157	135.337	132.859	0.000000
	85.1	-137.415	-4.631896	135.504	133.028	0.000000
	85.1333	-137.439	-4.661983	135.67	133.196	0.000000
	85.1667	-137.471	-4.699621	135.837	133.365	0.000000
	85.2	-137.496	-4.726641	136.004	133.532	0.000000
	85.2333	-137.527	-4.753778	136.17	133.7	0.000000
	85.2667	-137.557	-4.784455	136.337	133.869	0.000000
	85.3	-137.583	-4.818082	136.504	134.038	0.000000
	85.3333	-137.612	-4.847462	136.67	134.206	0.000000
	85.3667	-137.642	-4.877903	136.837	134.375	0.000000
	85.4	-137.671	-4.905040	137.004	134.544	0.000000
	85.4333	-137.697	-4.942443	137.17	134.711	0.000000
	85.4667	-137.729	-4.969698	137.337	134.879	0.000000
	85.5	-137.759	-5.004387	137.504	135.047	0.000000
	85.5333	-137.784	-5.034356	137.67	135.215	0.000000
	85.5667	-137.808	-5.062084	137.837	135.384	0.000000
	85.6	-137.842	-5.097362	138.004	135.553	0.000000
	85.6333	-137.871	-5.128629	138.17	135.722	0.000000
	85.6667	-137.899	-5.154469	138.337	135.889	0.000000
	85.7	-137.923	-5.188804	138.504	136.058	0.000000
	85.7333	-137.965	-5.219481	138.67	136.226	0.000000
	85.7667	-137.987	-5.249804	138.837	136.395	0.000000
	85.8	-138.019	-5.278004	139.004	136.563	0.000000
	85.8333	-138.047	-5.312810	139.17	136.732	0.000000
	85.8667	-138.071	-5.342662	139.337	136.9	0.000000
	85.9	-138.105	-5.370861	139.504	137.068	0.000000
	85.9333	-138.131	-5.404606	139.67	137.238	0.000000
	85.9667	-138.162	-5.436817	139.837	137.406	0.000000
	86	-138.191	-5.464072	140.004	137.573	0.000000
	86.0333	-138.218	-5.498053	140.17	137.741	0.000000
	86.0667	-138.242	-5.530854	140.337	137.91	0.000000
	86.1	-138.278	-5.560233	140.504	138.079	0.000000
	86.1333	-138.301	-5.591736	140.67	138.247	0.000000
	86.1667	-138.336	-5.624655	140.837	138.414	0.000000
	86.2	-138.361	-5.656984	141.004	138.583	0.000000
	86.2333	-138.384	-5.684122	141.17	138.751	0.000000
	86.2667	-138.416	-5.717985	141.337	138.919	0.000000
	86.3	-138.443	-5.749016	141.504	139.088	0.000000
	86.3333	-138.476	-5.780165	141.67	139.257	0.000000
	86.3667	-138.501	-5.811904	141.837	139.426	0.000000
	86.4	-138.528	-5.839277	142.004	139.593	0.000000
	86.4333	-138.554	-5.869601	142.17	139.762	0.000000
	86.4667	-138.583	-5.909835	142.337	139.93	0.000000
	86.5	-138.61	-5.936854	142.504	140.098	0.000000
	86.5333	-138.639	-5.965762	142.67	140.266	0.000000
	86.5667	-138.673	-5.995731	142.837	140.435	0.000000
	86.6	-138.697	-6.028650	143.004	140.602	0.000000
	86.6333	-138.723	-6.055669	143.17	140.772	0.000000
	86.6667	-138.751	-6.094488	143.337	140.94	0.000000
	86.7	-138.781	-6.127643	143.504	141.108	0.000000
	86.7333	-138.806	-6.150297	143.67	141.277	0.000000
	86.7667	-138.835	-6.185457	143.837	141.445	0.000000
	86.8	-138.865	-6.217904	144.004	141.613	0.000000
	86.8333	-138.894	-6.244452	144.17	141.781	0.000000
	86.8667	-138.925	-6.281382	144.337	141.948	0.000000
	86.9	-138.954	-6.313475	144.504	142.117	0.000000
	86.9333	-138.979	-6.343563	144.67	142.285	0.000000
	86.9667	-139.013	-6.374712	144.837	142.453	0.000000
	87	-139.043	-6.400905	145.004	142.622	0.000000
	87.0333	-139.069	-6.438426	145.17	142.789	0.000000
	87.0667	-139.094	-6.470637	145.337	142.957	0.000000
	87.1	-139.127	-6.500488	145.504	143.125	0.000000
	87.1333	-139.15	-6.535177	145.67	143.294	0.000000
	87.1667	-139.179	-6.561252	145.837	143.463	0.000000
	87.2	-139.206	-6.596649	146.004	143.634	0.000000
	87.2333	-139.233	-6.631928	146.17	143.803	0.000000
	87.2667	-139.26	-6.665437	146.337	143.971	0.000000
	87.3	-139.289	-6.690214	146.504	144.14	0.000000
	87.3333	-139.321	-6.724785	146.67	144.308	0.000000
	87.3667	-139.347	-6.753221	146.837	144.475	0.000000
	87.4	-139.376	-6.785786	147.004	144.643	0.000000
	87.4333	-139.404	-6.819412	147.17	144.812	0.000000
	87.4667	-139.438	-6.847258	147.337	144.98	0.000000
	87.5	-139.456	-6.880059	147.504	145.148	0.000000
	87.5333	-139.492	-6.917343	147.67	145.317	0.000000
	87.5667	-139.52	-6.946369	147.837	145.486	0.000000
	87.6	-139.548	-6.976692	148.004	145.654	0.000000
	87.6333	-139.58	-7.009493	148.17	145.822	0.000000
	87.6667	-139.605	-7.038872	148.337	145.991	0.000000
	87.7	-139.634	-7.074977	148.504	146.159	0.000000
	87.7333	-139.664	-7.104474	148.67	146.326	0.000000
	87.7667	-139.692	-7.136567	148.837	146.495	0.000000
	87.8	-139.723	-7.167126	149.004	146.663	0.000000
	87.8333	-139.75	-7.206652	149.17	146.831	0.000000
	87.8667	-139.777	-7.234734	149.337	147	0.000000
	87.9	-139.804	-7.266119	149.504	147.169	0.000000
	87.9333	-139.834	-7.299982	149.67	147.337	0.000000
	87.9667	-139.865	-7.329951	149.837	147.506	0.000000
	87.9833	-139.88	-7.343402	149.92	147.59	0.000000