File: documentation/exampledata/SMA anode bar boeing2.txt
Filename:	C:\Program Files\Pyris\Data\Mingear\2022\SMA anode bar boeing2.dcd
Operator ID:	mingear
Sample ID:	SMA anode bar
Comment:
Serial Number:
Data Collected:	1/20/2022 10:20:28 AM
Sample Weight:	58.300 mg
Display Weight:	58.300
Validation
Validated:	No
By:
Date:
Calibration Information
Filename:	C:\Program Files\Pyris\Calibrations\Indium 28Apr2017.dcc
Date/Time:
Initial Conditions
Temperature:	 40.00 °C
Y Initial:	20.00 mW
Sample Rate:	Standard
Baseline Filename:	C:\Program Files\Pyris\Data\Mingear\backgroundmizuki_2.dcd
End Condition:	Go To:	40.00°C
Total Points in Run:	5400
Method Steps:
Pre-Run Actions
Start the Run
	Action occurs Immediately
Switch the Gas to Nitrogen at 20.0 ml/min
	Action occurs Immediately
1)	Hold for 1.0 min at 40.00°C

2)	Heat from 40.00°C to 150.00°C at 10.00°C/min

3)	Hold for 2.0 min at 150.00°C

4)	Cool from 150.00°C to -20.00°C at 10.00°C/min

5)	Hold for 2.0 min at -20.00°C

6)	Heat from -20.00°C to 150.00°C at 10.00°C/min

7)	Hold for 2.0 min at 150.00°C

8)	Cool from 150.00°C to -20.00°C at 10.00°C/min

9)	Hold for 2.0 min at -20.00°C

10)	Heat from -20.00°C to 150.00°C at 10.00°C/min

11)	Hold for 2.0 min at 150.00°C

1) DSC Isothermal
	Time     	Unsubtracted	Baseline     	Program     	Sample     	Approx.
	          	Heat Flow     	Heat Flow     	Temperature	Temperature	Gas Flow
	0.000000	19.9971	0.000000	40	40.538	0.000000
	0.016667	19.995	0.000000	40	40.534	0.000000
	0.033333	19.9942	0.000000	40	40.53	0.000000
	0.050000	19.9915	0.000000	40	40.527	0.000000
	0.066667	19.9884	0.000000	40	40.524	0.000000
	0.083333	19.9937	0.000000	40	40.52	0.000000
	0.100000	19.991	0.000000	40	40.515	0.000000
	0.116667	19.988	0.000000	40	40.511	0.000000
	0.133333	19.988	0.000000	40	40.508	0.000000
	0.150000	19.9841	0.000000	40	40.504	0.000000
	0.166667	19.9837	0.000000	40	40.501	0.000000
	0.183333	19.983	0.000000	40	40.496	0.000000
	0.200000	19.9803	0.000000	40	40.494	0.000000
	0.216667	19.9744	0.000000	40	40.49	0.000000
	0.233333	19.9705	0.000000	40	40.487	0.000000
	0.250000	19.9673	0.000000	40	40.483	0.000000
	0.266667	19.9667	0.000000	40	40.478	0.000000
	0.283333	19.9671	0.000000	40	40.473	0.000000
	0.300000	19.967	0.000000	40	40.468	0.000000
	0.316667	19.9593	0.000000	40	40.464	0.000000
	0.333333	19.9599	0.000000	40	40.461	0.000000
	0.350000	19.9607	0.000000	40	40.456	0.000000
	0.366667	19.9593	0.000000	40	40.453	0.000000
	0.383333	19.9549	0.000000	40	40.449	0.000000
	0.400000	19.9543	0.000000	40	40.445	0.000000
	0.416667	19.9501	0.000000	40	40.442	0.000000
	0.433333	19.9442	0.000000	40	40.438	0.000000
	0.450000	19.9404	0.000000	40	40.435	0.000000
	0.466667	19.9408	0.000000	40	40.431	0.000000
	0.483333	19.9404	0.000000	40	40.428	0.000000
	0.500000	19.937	0.000000	40	40.423	0.000000
	0.516667	19.9338	0.000000	40	40.42	0.000000
	0.533333	19.9307	0.000000	40	40.417	0.000000
	0.550000	19.9289	0.000000	40	40.413	0.000000
	0.566667	19.9285	0.000000	40	40.409	0.000000
	0.583333	19.929	0.000000	40	40.404	0.000000
	0.600000	19.926	0.000000	40	40.399	0.000000
	0.616667	19.9206	0.000000	40	40.395	0.000000
	0.633333	19.9209	0.000000	40	40.392	0.000000
	0.650000	19.9218	0.000000	40	40.387	0.000000
	0.666667	19.9185	0.000000	40	40.384	0.000000
	0.683333	19.9165	0.000000	40	40.38	0.000000
	0.700000	19.9145	0.000000	40	40.377	0.000000
	0.716667	19.9126	0.000000	40	40.373	0.000000
	0.733333	19.9097	0.000000	40	40.371	0.000000
	0.750000	19.9073	0.000000	40	40.367	0.000000
	0.766667	19.9036	0.000000	40	40.363	0.000000
	0.783333	19.9008	0.000000	40	40.359	0.000000
	0.800000	19.8992	0.000000	40	40.356	0.000000
	0.816667	19.8965	0.000000	40	40.352	0.000000
	0.833333	19.8945	0.000000	40	40.349	0.000000
	0.850000	19.8929	0.000000	40	40.346	0.000000
	0.866667	19.8945	0.000000	40	40.342	0.000000
	0.883333	19.893	0.000000	40	40.338	0.000000
	0.900000	19.8929	0.000000	40	40.336	0.000000
	0.916667	19.8931	0.000000	40	40.333	0.000000
	0.933333	19.8894	0.000000	40	40.327	0.000000
	0.950000	19.8881	0.000000	40	40.321	0.000000
	0.966667	19.8867	0.000000	40	40.318	0.000000
	0.983333	19.886	0.000000	40	40.314	0.000000
2) DSC Temperature Scan
	1.000000	19.9401	0.000000	40.004	40.31	0.000000
	1.016667	19.9585	0.000000	40.17	40.307	0.000000
	1.033333	20.3176	-0.145127	40.337	40.309	0.000000
	1.050000	20.701	0.235270	40.504	40.33	0.000000
	1.066667	20.9577	0.451426	40.67	40.371	0.000000
	1.083333	21.1788	0.234208	40.837	40.429	0.000000
	1.100000	21.4231	-0.135687	41.004	40.506	0.000000
	1.116667	21.7065	-0.481041	41.17	40.598	0.000000
	1.133333	22.018	-0.746871	41.337	40.703	0.000000
	1.150000	22.3296	-0.936361	41.504	40.82	0.000000
	1.166667	22.6375	-1.067329	41.67	40.944	0.000000
	1.183333	22.9254	-1.152989	41.837	41.076	0.000000
	1.200000	23.1936	-1.214697	42.004	41.213	0.000000
	1.216667	23.4363	-1.263073	42.17	41.356	0.000000
	1.233333	23.6578	-1.302363	42.337	41.503	0.000000
	1.250000	23.8488	-1.337170	42.504	41.653	0.000000
	1.266667	24.0153	-1.367611	42.67	41.805	0.000000
	1.283333	24.1581	-1.394630	42.837	41.959	0.000000
	1.300000	24.2809	-1.420706	43.004	42.115	0.000000
	1.316667	24.3882	-1.450911	43.17	42.273	0.000000
	1.333333	24.4826	-1.476987	43.337	42.431	0.000000
	1.350000	24.5617	-1.501764	43.504	42.591	0.000000
	1.366667	24.626	-1.529728	43.67	42.752	0.000000
	1.383333	24.6846	-1.557691	43.837	42.912	0.000000
	1.400000	24.7344	-1.584003	44.004	43.072	0.000000
	1.416667	24.777	-1.611730	44.17	43.234	0.000000
	1.433333	24.8173	-1.637688	44.337	43.396	0.000000
	1.450000	24.8517	-1.662230	44.504	43.558	0.000000
	1.466667	24.8818	-1.689485	44.67	43.72	0.000000
	1.483333	24.9072	-1.717330	44.837	43.884	0.000000
	1.500000	24.9309	-1.741754	45.004	44.048	0.000000
	1.516667	24.9469	-1.770190	45.17	44.21	0.000000
	1.533333	24.9621	-1.799333	45.337	44.373	0.000000
	1.550000	24.9793	-1.825408	45.504	44.537	0.000000
	1.566667	24.9949	-1.851012	45.67	44.701	0.000000
	1.583333	25.0124	-1.876498	45.837	44.865	0.000000
	1.600000	25.0313	-1.902101	46.004	45.028	0.000000
	1.616667	25.0479	-1.926761	46.17	45.192	0.000000
	1.633333	25.0629	-1.953780	46.337	45.355	0.000000
	1.650000	25.0753	-1.981036	46.504	45.519	0.000000
	1.666667	25.0893	-2.006050	46.67	45.682	0.000000
	1.683333	25.1037	-2.033069	46.837	45.845	0.000000
	1.700000	25.1181	-2.060443	47.004	46.009	0.000000
	1.716667	25.1331	-2.085456	47.17	46.173	0.000000
	1.733333	25.1397	-2.113302	47.337	46.337	0.000000
	1.750000	25.1588	-2.143389	47.504	46.5	0.000000
	1.766667	25.1673	-2.168639	47.67	46.664	0.000000
	1.783333	25.1822	-2.193298	47.837	46.827	0.000000
	1.800000	25.2096	-2.218194	48.004	46.992	0.000000
	1.816667	25.2243	-2.243916	48.17	47.156	0.000000
	1.833333	25.2371	-2.269283	48.337	47.319	0.000000
	1.850000	25.2419	-2.297954	48.504	47.483	0.000000
	1.866667	25.2486	-2.321434	48.67	47.646	0.000000
	1.883333	25.2616	-2.348808	48.837	47.81	0.000000
	1.900000	25.2726	-2.372996	49.004	47.973	0.000000
	1.916667	25.2823	-2.398127	49.17	48.137	0.000000
	1.933333	25.2909	-2.425383	49.337	48.302	0.000000
	1.950000	25.3011	-2.452874	49.504	48.466	0.000000
	1.966667	25.3145	-2.478950	49.67	48.63	0.000000
	1.983333	25.3257	-2.503609	49.837	48.793	0.000000
	2.000000	25.3395	-2.530983	50.004	48.956	0.000000
	2.016667	25.3549	-2.556232	50.17	49.12	0.000000
	2.033333	25.3661	-2.581364	50.337	49.284	0.000000
	2.050000	25.3773	-2.607204	50.504	49.448	0.000000
	2.066667	25.3891	-2.636111	50.67	49.613	0.000000
	2.083333	25.3966	-2.659001	50.837	49.776	0.000000
	2.100000	25.4056	-2.685430	51.004	49.94	0.000000
	2.116667	25.4191	-2.714102	51.17	50.104	0.000000
	2.133333	25.4321	-2.739823	51.337	50.268	0.000000
	2.150000	25.4427	-2.763185	51.504	50.431	0.000000
	2.166667	25.4576	-2.790205	51.67	50.596	0.000000
	2.183333	25.4737	-2.817932	51.837	50.76	0.000000
	2.200000	25.4811	-2.843300	52.004	50.924	0.000000
	2.216667	25.4905	-2.870083	52.17	51.087	0.000000
	2.233333	25.5029	-2.897811	52.337	51.251	0.000000
	2.250000	25.5136	-2.922588	52.504	51.415	0.000000
	2.266667	25.5239	-2.948664	52.67	51.58	0.000000
	2.283333	25.5344	-2.973914	52.837	51.744	0.000000
	2.300000	25.5464	-2.996450	53.004	51.909	0.000000
	2.316667	25.5589	-3.022879	53.17	52.072	0.000000
	2.333333	25.5671	-3.050843	53.337	52.235	0.000000
	2.350000	25.5788	-3.077154	53.504	52.4	0.000000
	2.366667	25.5916	-3.102876	53.67	52.564	0.000000
	2.383333	25.6012	-3.133435	53.837	52.729	0.000000
	2.400000	25.6142	-3.161634	54.004	52.893	0.000000
	2.416667	25.6216	-3.185468	54.17	53.058	0.000000
	2.433333	25.6343	-3.211308	54.337	53.223	0.000000
	2.450000	25.6512	-3.235141	54.504	53.388	0.000000
	2.466667	25.6605	-3.260155	54.67	53.552	0.000000
	2.483333	25.6704	-3.284815	54.837	53.717	0.000000
	2.500000	25.6795	-3.312188	55.004	53.881	0.000000
	2.516667	25.6894	-3.339680	55.17	54.045	0.000000
	2.533333	25.6998	-3.368233	55.337	54.209	0.000000
	2.550000	25.7116	-3.392303	55.504	54.374	0.000000
	2.566667	25.722	-3.416137	55.67	54.539	0.000000
	2.583333	25.7288	-3.444572	55.837	54.704	0.000000
	2.600000	25.739	-3.471473	56.004	54.869	0.000000
	2.616667	25.7506	-3.497785	56.17	55.033	0.000000
	2.633333	25.7609	-3.523979	56.337	55.198	0.000000
	2.650000	25.772	-3.549700	56.504	55.362	0.000000
	2.666667	25.7819	-3.576366	56.67	55.526	0.000000
	2.683333	25.7951	-3.603149	56.837	55.691	0.000000
	2.700000	25.8067	-3.630051	57.004	55.857	0.000000
	2.716667	25.8167	-3.654946	57.17	56.021	0.000000
	2.733333	25.8224	-3.679252	57.337	56.185	0.000000
	2.750000	25.8277	-3.707923	57.504	56.35	0.000000
	2.766667	25.8395	-3.736005	57.67	56.515	0.000000
	2.783333	25.8512	-3.760075	57.837	56.68	0.000000
	2.800000	25.8613	-3.787920	58.004	56.844	0.000000
	2.816667	25.8743	-3.814114	58.17	57.009	0.000000
	2.833333	25.8856	-3.841015	58.337	57.174	0.000000
	2.850000	25.8972	-3.865793	58.504	57.339	0.000000
	2.866667	25.9082	-3.893284	58.67	57.504	0.000000
	2.883333	25.9193	-3.919006	58.837	57.668	0.000000
	2.900000	25.9278	-3.946497	59.004	57.833	0.000000
	2.916667	25.9382	-3.974579	59.17	57.997	0.000000
	2.933333	25.9527	-4.002306	59.337	58.162	0.000000
	2.950000	25.9641	-4.028264	59.504	58.326	0.000000
	2.966667	25.9745	-4.053749	59.67	58.491	0.000000
	2.983333	25.9863	-4.078291	59.837	58.656	0.000000
	3.000000	25.9986	-4.104131	60.004	58.821	0.000000
	3.016667	26.0086	-4.132802	60.17	58.986	0.000000
	3.033333	26.02	-4.158642	60.337	59.15	0.000000
	3.050000	26.0316	-4.183537	60.504	59.315	0.000000
	3.066667	26.0429	-4.212917	60.67	59.48	0.000000
	3.083333	26.0544	-4.241234	60.837	59.645	0.000000
	3.100000	26.064	-4.265186	61.004	59.809	0.000000
	3.116667	26.075	-4.291497	61.17	59.973	0.000000
	3.133333	26.0832	-4.316629	61.337	60.138	0.000000
	3.150000	26.0972	-4.343058	61.504	60.303	0.000000
	3.166667	26.1065	-4.371494	61.67	60.469	0.000000
	3.183333	26.1136	-4.399811	61.837	60.632	0.000000
	3.200000	26.1255	-4.427421	62.004	60.797	0.000000
	3.216667	26.1445	-4.451490	62.17	60.962	0.000000
	3.233333	26.1503	-4.478864	62.337	61.127	0.000000
	3.250000	26.154	-4.505411	62.504	61.292	0.000000
	3.266667	26.163	-4.530543	62.67	61.456	0.000000
	3.283333	26.1738	-4.556501	62.837	61.62	0.000000
	3.300000	26.1902	-4.584110	63.004	61.785	0.000000
	3.316667	26.1987	-4.607826	63.17	61.95	0.000000
	3.333333	26.2058	-4.637913	63.337	62.116	0.000000
	3.350000	26.2178	-4.664933	63.504	62.281	0.000000
	3.366667	26.2317	-4.690064	63.67	62.446	0.000000
	3.383333	26.2467	-4.715550	63.837	62.612	0.000000
	3.400000	26.2548	-4.745047	64.004	62.777	0.000000
	3.416667	26.2682	-4.771005	64.17	62.942	0.000000
	3.433333	26.2821	-4.800502	64.337	63.107	0.000000
	3.450000	26.2964	-4.828583	64.504	63.272	0.000000
	3.466667	26.3056	-4.853361	64.67	63.438	0.000000
	3.483333	26.3158	-4.876841	64.837	63.602	0.000000
	3.500000	26.324	-4.904686	65.004	63.767	0.000000
	3.516667	26.3416	-4.930880	65.17	63.933	0.000000
	3.533333	26.3574	-4.956366	65.337	64.099	0.000000
	3.550000	26.3708	-4.984683	65.504	64.263	0.000000
	3.566667	26.3787	-5.010876	65.67	64.43	0.000000
	3.583333	26.3871	-5.036244	65.837	64.597	0.000000
	3.600000	26.404	-5.064797	66.004	64.763	0.000000
	3.616667	26.4197	-5.090519	66.17	64.928	0.000000
	3.633333	26.4286	-5.118600	66.337	65.092	0.000000
	3.650000	26.4463	-5.148452	66.504	65.258	0.000000
	3.666667	26.4585	-5.174527	66.67	65.423	0.000000
	3.683333	26.4641	-5.200839	66.837	65.589	0.000000
	3.700000	26.4778	-5.228212	67.004	65.753	0.000000
	3.716667	26.4954	-5.258299	67.17	65.919	0.000000
	3.733333	26.5091	-5.286263	67.337	66.084	0.000000
	3.750000	26.5211	-5.313046	67.504	66.249	0.000000
	3.766667	26.5303	-5.341128	67.67	66.413	0.000000
	3.783333	26.5437	-5.369209	67.837	66.578	0.000000
	3.800000	26.5539	-5.398942	68.004	66.744	0.000000
	3.816667	26.5702	-5.428912	68.17	66.909	0.000000
	3.833333	26.5824	-5.457819	68.337	67.072	0.000000
	3.850000	26.5952	-5.483423	68.504	67.238	0.000000
	3.866667	26.6162	-5.510088	68.67	67.403	0.000000
	3.883333	26.6355	-5.544659	68.837	67.568	0.000000
	3.900000	26.6497	-5.569437	69.004	67.733	0.000000
	3.916667	26.661	-5.595866	69.17	67.897	0.000000
	3.933333	26.6743	-5.623711	69.337	68.063	0.000000
	3.950000	26.6941	-5.653091	69.504	68.229	0.000000
	3.966667	26.7074	-5.679638	69.67	68.393	0.000000
	3.983333	26.7257	-5.710669	69.837	68.559	0.000000
	4.000000	26.7395	-5.739931	70.004	68.724	0.000000
	4.016667	26.7527	-5.765888	70.17	68.889	0.000000
	4.033333	26.7728	-5.793262	70.337	69.054	0.000000
	4.050000	26.7927	-5.819101	70.504	69.219	0.000000
	4.066667	26.8047	-5.843407	70.67	69.385	0.000000
	4.083333	26.8268	-5.878568	70.837	69.549	0.000000
	4.100000	26.8516	-5.908655	71.004	69.714	0.000000
	4.116667	26.872	-5.930129	71.17	69.878	0.000000
	4.133333	26.893	-5.959036	71.337	70.044	0.000000
	4.150000	26.9046	-5.989596	71.504	70.208	0.000000
	4.166667	26.9152	-6.016969	71.67	70.372	0.000000
	4.183333	26.9322	-6.046348	71.837	70.538	0.000000
	4.200000	26.9486	-6.070418	72.004	70.704	0.000000
	4.216667	26.9684	-6.099679	72.17	70.87	0.000000
	4.233333	26.9837	-6.127525	72.337	71.036	0.000000
	4.250000	27.003	-6.155252	72.504	71.202	0.000000
	4.266667	27.0232	-6.181800	72.67	71.367	0.000000
	4.283333	27.0344	-6.212359	72.837	71.531	0.000000
	4.300000	27.0513	-6.241030	73.004	71.697	0.000000
	4.316667	27.068	-6.267578	73.17	71.862	0.000000
	4.333333	27.0776	-6.293299	73.337	72.027	0.000000
	4.350000	27.0876	-6.324212	73.504	72.192	0.000000
	4.366667	27.1079	-6.354536	73.67	72.358	0.000000
	4.383333	27.1255	-6.382853	73.837	72.523	0.000000
	4.400000	27.1445	-6.408811	74.004	72.688	0.000000
	4.416667	27.1626	-6.437836	74.17	72.854	0.000000
	4.433333	27.1675	-6.466271	74.337	73.02	0.000000
	4.450000	27.1877	-6.493645	74.504	73.185	0.000000
	4.466667	27.2163	-6.520192	74.67	73.349	0.000000
	4.483333	27.2439	-6.551695	74.837	73.515	0.000000
	4.500000	27.2601	-6.579659	75.004	73.68	0.000000
	4.516667	27.2754	-6.607622	75.17	73.846	0.000000
	4.533333	27.2882	-6.634288	75.337	74.011	0.000000
	4.550000	27.3029	-6.660835	75.504	74.177	0.000000
	4.566667	27.3211	-6.690214	75.67	74.343	0.000000
	4.583333	27.3323	-6.717352	75.837	74.507	0.000000
	4.600000	27.3354	-6.744607	76.004	74.673	0.000000
	4.616667	27.3566	-6.772335	76.17	74.837	0.000000
	4.633333	27.3814	-6.804074	76.337	75.003	0.000000
	4.650000	27.4061	-6.830975	76.504	75.169	0.000000
	4.666667	27.4363	-6.860591	76.67	75.334	0.000000
	4.683333	27.468	-6.890796	76.837	75.5	0.000000
	4.700000	27.4949	-6.919585	77.004	75.665	0.000000
	4.716667	27.5206	-6.945071	77.17	75.83	0.000000
	4.733333	27.5469	-6.970202	77.337	75.995	0.000000
	4.750000	27.5735	-7.001469	77.504	76.16	0.000000
	4.766667	27.5859	-7.026601	77.67	76.325	0.000000
	4.783333	27.6065	-7.059992	77.837	76.49	0.000000
	4.800000	27.6288	-7.088899	78.004	76.655	0.000000
	4.816667	27.6472	-7.116509	78.17	76.821	0.000000
	4.833333	27.6656	-7.142702	78.337	76.986	0.000000
	4.850000	27.6897	-7.170076	78.504	77.151	0.000000
	4.866667	27.7105	-7.198393	78.67	77.317	0.000000
	4.883333	27.7311	-7.229070	78.837	77.482	0.000000
	4.900000	27.7551	-7.258214	79.004	77.649	0.000000
	4.916667	27.7796	-7.284289	79.17	77.814	0.000000
	4.933333	27.7975	-7.312253	79.337	77.979	0.000000
	4.950000	27.8237	-7.344464	79.504	78.144	0.000000
	4.966667	27.8397	-7.368061	79.67	78.309	0.000000
	4.983333	27.8557	-7.398503	79.837	78.474	0.000000
	5.000000	27.8734	-7.428118	80.004	78.639	0.000000
	5.016667	27.8992	-7.456199	80.17	78.804	0.000000
	5.033333	27.9286	-7.479561	80.337	78.969	0.000000
	5.050000	27.9495	-7.512598	80.504	79.135	0.000000
	5.066667	27.9645	-7.538556	80.67	79.3	0.000000
	5.083333	27.9841	-7.569351	80.837	79.465	0.000000
	5.100000	28	-7.598376	81.004	79.63	0.000000
	5.116667	28.0085	-7.627401	81.17	79.796	0.000000
	5.133333	28.05	-7.654421	81.337	79.961	0.000000
	5.150000	28.0896	-7.684390	81.504	80.126	0.000000
	5.166667	28.1298	-7.714005	81.67	80.292	0.000000
	5.183333	28.1678	-7.743149	81.837	80.458	0.000000
	5.200000	28.1996	-7.771112	82.004	80.624	0.000000
	5.216667	28.2212	-7.797424	82.17	80.79	0.000000
	5.233333	28.2347	-7.826213	82.337	80.956	0.000000
	5.250000	28.2615	-7.855356	82.504	81.121	0.000000
	5.266667	28.292	-7.885679	82.67	81.287	0.000000
	5.283333	28.3086	-7.914469	82.837	81.451	0.000000
	5.300000	28.3232	-7.942196	83.004	81.617	0.000000
	5.316667	28.3345	-7.971575	83.17	81.783	0.000000
	5.333333	28.3579	-8.000719	83.337	81.949	0.000000
	5.350000	28.3862	-8.026440	83.504	82.115	0.000000
	5.366667	28.4206	-8.056645	83.67	82.28	0.000000
	5.383333	28.4604	-8.086969	83.837	82.445	0.000000
	5.400000	28.5006	-8.113398	84.004	82.61	0.000000
	5.416667	28.5403	-8.143249	84.17	82.776	0.000000
	5.433333	28.5756	-8.171095	84.337	82.94	0.000000
	5.450000	28.61	-8.200474	84.504	83.106	0.000000
	5.466667	28.6528	-8.228555	84.67	83.272	0.000000
	5.483333	28.6889	-8.256637	84.837	83.437	0.000000
	5.500000	28.7196	-8.289320	85.004	83.603	0.000000
	5.516667	28.7456	-8.318345	85.17	83.769	0.000000
	5.533333	28.7648	-8.343359	85.337	83.933	0.000000
	5.550000	28.7927	-8.370614	85.504	84.098	0.000000
	5.566667	28.8288	-8.401763	85.67	84.265	0.000000
	5.583333	28.8645	-8.431969	85.837	84.431	0.000000
	5.600000	28.8989	-8.460994	86.004	84.597	0.000000
	5.616667	28.9413	-8.489665	86.17	84.764	0.000000
	5.633333	28.965	-8.517747	86.337	84.93	0.000000
	5.650000	28.9918	-8.547244	86.504	85.095	0.000000
	5.666667	29.0206	-8.575915	86.67	85.26	0.000000
	5.683333	29.0355	-8.607772	86.837	85.426	0.000000
	5.700000	29.0501	-8.634556	87.004	85.591	0.000000
	5.716667	29.0974	-8.662519	87.17	85.757	0.000000
	5.733333	29.1471	-8.691780	87.337	85.921	0.000000
	5.750000	29.1926	-8.720570	87.504	86.087	0.000000
	5.766667	29.221	-8.746173	87.67	86.252	0.000000
	5.783333	29.2358	-8.776025	87.837	86.418	0.000000
	5.800000	29.2628	-8.807764	88.004	86.584	0.000000
	5.816667	29.3084	-8.837025	88.17	86.748	0.000000
	5.833333	29.3557	-8.863572	88.337	86.915	0.000000
	5.850000	29.4005	-8.892480	88.504	87.08	0.000000
	5.866667	29.4398	-8.924691	88.67	87.244	0.000000
	5.883333	29.4794	-8.952418	88.837	87.41	0.000000
	5.900000	29.5143	-8.980382	89.004	87.574	0.000000
	5.916667	29.5443	-9.011177	89.17	87.74	0.000000
	5.933333	29.5706	-9.042680	89.337	87.906	0.000000
	5.950000	29.5966	-9.068991	89.504	88.071	0.000000
	5.966667	29.6239	-9.098489	89.67	88.237	0.000000
	5.983333	29.6516	-9.126098	89.837	88.402	0.000000
	6.000000	29.6784	-9.159489	90.004	88.567	0.000000
	6.016667	29.7031	-9.187570	90.17	88.732	0.000000
	6.033333	29.7326	-9.215534	90.337	88.899	0.000000
	6.050000	29.7642	-9.245149	90.504	89.063	0.000000
	6.066667	29.7917	-9.275944	90.67	89.23	0.000000
	6.083333	29.8139	-9.302256	90.837	89.396	0.000000
	6.100000	29.8271	-9.335057	91.004	89.561	0.000000
	6.116667	29.8476	-9.362548	91.17	89.727	0.000000
	6.133333	29.8583	-9.391691	91.337	89.893	0.000000
	6.150000	29.8598	-9.423194	91.504	90.06	0.000000
	6.166667	29.8804	-9.454580	91.67	90.226	0.000000
	6.183333	29.9054	-9.483133	91.837	90.392	0.000000
	6.200000	29.932	-9.511450	92.004	90.558	0.000000
	6.216667	29.9528	-9.543661	92.17	90.725	0.000000
	6.233333	29.9654	-9.573749	92.337	90.891	0.000000
	6.250000	29.9866	-9.600650	92.504	91.057	0.000000
	6.266667	30.0134	-9.627905	92.67	91.223	0.000000
	6.283333	30.047	-9.658701	92.837	91.389	0.000000
	6.300000	30.0725	-9.686900	93.004	91.555	0.000000
	6.316667	30.1069	-9.714155	93.17	91.722	0.000000
	6.333333	30.1401	-9.744715	93.337	91.887	0.000000
	6.350000	30.1646	-9.774094	93.504	92.052	0.000000
	6.366667	30.1905	-9.801585	93.67	92.217	0.000000
	6.383333	30.2272	-9.832852	93.837	92.383	0.000000
	6.400000	30.2649	-9.862468	94.004	92.55	0.000000
	6.416667	30.2991	-9.889015	94.17	92.716	0.000000
	6.433333	30.3449	-9.921698	94.337	92.881	0.000000
	6.450000	30.3965	-9.954263	94.504	93.047	0.000000
	6.466667	30.4374	-9.982227	94.67	93.212	0.000000
	6.483333	30.4806	-10.012	94.837	93.378	0.000000
	6.500000	30.5207	-10.0411	95.004	93.543	0.000000
	6.516667	30.5448	-10.0694	95.17	93.709	0.000000
	6.533333	30.5659	-10.0992	95.337	93.875	0.000000
	6.550000	30.5938	-10.1308	95.504	94.041	0.000000
	6.566667	30.6251	-10.1596	95.67	94.206	0.000000
	6.583333	30.6557	-10.1885	95.837	94.371	0.000000
	6.600000	30.6962	-10.2194	96.004	94.537	0.000000
	6.616667	30.7354	-10.2499	96.17	94.704	0.000000
	6.633333	30.7836	-10.2793	96.337	94.869	0.000000
	6.650000	30.8336	-10.3133	96.504	95.035	0.000000
	6.666667	30.8749	-10.3426	96.67	95.2	0.000000
	6.683333	30.9083	-10.3686	96.837	95.365	0.000000
	6.700000	30.9343	-10.3997	97.004	95.53	0.000000
	6.716667	30.9694	-10.4276	97.17	95.697	0.000000
	6.733333	31.0017	-10.4555	97.337	95.862	0.000000
	6.750000	31.0348	-10.4852	97.504	96.028	0.000000
	6.766667	31.0689	-10.5145	97.67	96.193	0.000000
	6.783333	31.0939	-10.5424	97.837	96.358	0.000000
	6.800000	31.1339	-10.5732	98.004	96.523	0.000000
	6.816667	31.198	-10.6059	98.17	96.688	0.000000
	6.833333	31.2628	-10.6323	98.337	96.855	0.000000
	6.850000	31.3192	-10.6648	98.504	97.021	0.000000
	6.866667	31.3728	-10.697	98.67	97.186	0.000000
	6.883333	31.4171	-10.7256	98.837	97.352	0.000000
	6.900000	31.4537	-10.7532	99.004	97.518	0.000000
	6.916667	31.5111	-10.7834	99.17	97.684	0.000000
	6.933333	31.5831	-10.8144	99.337	97.849	0.000000
	6.950000	31.6646	-10.8428	99.504	98.015	0.000000
	6.966667	31.7521	-10.8752	99.67	98.181	0.000000
	6.983333	31.8323	-10.9062	99.837	98.346	0.000000
	7.000000	31.8973	-10.9329	100.004	98.511	0.000000
	7.016667	31.9699	-10.963	100.17	98.677	0.000000
	7.033333	32.0429	-10.9939	100.337	98.843	0.000000
	7.050000	32.1228	-11.0231	100.504	99.01	0.000000
	7.066667	32.2114	-11.0539	100.67	99.175	0.000000
	7.083333	32.3022	-11.0859	100.837	99.34	0.000000
	7.100000	32.3919	-11.1163	101.004	99.506	0.000000
	7.116667	32.4857	-11.1425	101.17	99.671	0.000000
	7.133333	32.5798	-11.1742	101.337	99.837	0.000000
	7.150000	32.6593	-11.2049	101.504	100.002	0.000000
	7.166667	32.7331	-11.2329	101.67	100.169	0.000000
	7.183333	32.8156	-11.2654	101.837	100.334	0.000000
	7.200000	32.8988	-11.2993	102.004	100.5	0.000000
	7.216667	32.9788	-11.3262	102.17	100.666	0.000000
	7.233333	33.0541	-11.3556	102.337	100.833	0.000000
	7.250000	33.1428	-11.3884	102.504	100.998	0.000000
	7.266667	33.2244	-11.4157	102.67	101.164	0.000000
	7.283333	33.3282	-11.4481	102.837	101.329	0.000000
	7.300000	33.4149	-11.48	103.004	101.495	0.000000
	7.316667	33.4975	-11.5051	103.17	101.661	0.000000
	7.333333	33.5507	-11.5366	103.337	101.827	0.000000
	7.350000	33.6078	-11.5682	103.504	101.993	0.000000
	7.366667	33.6654	-11.597	103.67	102.158	0.000000
	7.383333	33.734	-11.6249	103.837	102.324	0.000000
	7.400000	33.8001	-11.6583	104.004	102.489	0.000000
	7.416667	33.8673	-11.6869	104.17	102.654	0.000000
	7.433333	33.9167	-11.72	104.337	102.82	0.000000
	7.450000	33.9596	-11.7484	104.504	102.985	0.000000
	7.466667	34.0118	-11.7775	104.67	103.152	0.000000
	7.483333	34.0793	-11.8096	104.837	103.319	0.000000
	7.500000	34.136	-11.839	105.004	103.484	0.000000
	7.516667	34.1677	-11.8723	105.17	103.65	0.000000
	7.533333	34.2094	-11.899	105.337	103.816	0.000000
	7.550000	34.251	-11.9322	105.504	103.981	0.000000
	7.566667	34.3217	-11.9603	105.67	104.147	0.000000
	7.583333	34.3813	-11.9897	105.837	104.312	0.000000
	7.600000	34.4442	-12.0232	106.004	104.479	0.000000
	7.616667	34.4919	-12.0549	106.17	104.645	0.000000
	7.633333	34.5761	-12.0847	106.337	104.811	0.000000
	7.650000	34.671	-12.1133	106.504	104.976	0.000000
	7.666667	34.7716	-12.1419	106.67	105.143	0.000000
	7.683333	34.8519	-12.1742	106.837	105.31	0.000000
	7.700000	34.9129	-12.2051	107.004	105.475	0.000000
	7.716667	35.0094	-12.2379	107.17	105.64	0.000000
	7.733333	35.1132	-12.2672	107.337	105.806	0.000000
	7.750000	35.2212	-12.2976	107.504	105.972	0.000000
	7.766667	35.3051	-12.3287	107.67	106.137	0.000000
	7.783333	35.3854	-12.3586	107.837	106.302	0.000000
	7.800000	35.4856	-12.3888	108.004	106.468	0.000000
	7.816667	35.6048	-12.4224	108.17	106.633	0.000000
	7.833333	35.7335	-12.4548	108.337	106.799	0.000000
	7.850000	35.8646	-12.4835	108.504	106.965	0.000000
	7.866667	35.9888	-12.5127	108.67	107.131	0.000000
	7.883333	36.0734	-12.5435	108.837	107.298	0.000000
	7.900000	36.1901	-12.5749	109.004	107.463	0.000000
	7.916667	36.3364	-12.6044	109.17	107.63	0.000000
	7.933333	36.4558	-12.6364	109.337	107.795	0.000000
	7.950000	36.5661	-12.6657	109.504	107.961	0.000000
	7.966667	36.6855	-12.6957	109.67	108.127	0.000000
	7.983333	36.8039	-12.7276	109.837	108.293	0.000000
	8.000000	36.9333	-12.758	110.004	108.459	0.000000
	8.016667	37.0889	-12.7889	110.17	108.625	0.000000
	8.033333	37.2193	-12.8193	110.337	108.79	0.000000
	8.050000	37.3329	-12.8481	110.504	108.956	0.000000
	8.066667	37.4912	-12.8804	110.67	109.121	0.000000
	8.083333	37.63	-12.9101	110.837	109.288	0.000000
	8.100000	37.7457	-12.9439	111.004	109.456	0.000000
	8.116667	37.8523	-12.9724	111.17	109.621	0.000000
	8.133333	37.9549	-13.0014	111.337	109.787	0.000000
	8.150000	38.0474	-13.0371	111.504	109.953	0.000000
	8.166667	38.1291	-13.0663	111.67	110.118	0.000000
	8.183333	38.2207	-13.099	111.837	110.284	0.000000
	8.200000	38.3283	-13.1298	112.004	110.45	0.000000
	8.216667	38.4325	-13.1584	112.17	110.616	0.000000
	8.233333	38.5167	-13.1889	112.337	110.782	0.000000
	8.250000	38.5611	-13.2221	112.504	110.948	0.000000
	8.266667	38.6255	-13.2571	112.67	111.115	0.000000
	8.283333	38.6783	-13.2869	112.837	111.281	0.000000
	8.300000	38.7111	-13.3153	113.004	111.447	0.000000
	8.316667	38.7348	-13.3464	113.17	111.613	0.000000
	8.333333	38.7529	-13.3805	113.337	111.78	0.000000
	8.350000	38.768	-13.4122	113.504	111.945	0.000000
	8.366667	38.7643	-13.4404	113.67	112.112	0.000000
	8.383333	38.7591	-13.4681	113.837	112.278	0.000000
	8.400000	38.7553	-13.5028	114.004	112.444	0.000000
	8.416667	38.75	-13.5323	114.17	112.609	0.000000
	8.433333	38.7577	-13.5619	114.337	112.777	0.000000
	8.450000	38.763	-13.5927	114.504	112.942	0.000000
	8.466667	38.7454	-13.6289	114.67	113.108	0.000000
	8.483333	38.7035	-13.6581	114.837	113.274	0.000000
	8.500000	38.6333	-13.688	115.004	113.44	0.000000
	8.516667	38.5429	-13.7191	115.17	113.606	0.000000
	8.533333	38.4246	-13.7522	115.337	113.774	0.000000
	8.550000	38.2936	-13.7829	115.504	113.94	0.000000
	8.566667	38.1494	-13.8127	115.67	114.107	0.000000
	8.583333	37.9864	-13.8441	115.837	114.272	0.000000
	8.600000	37.8154	-13.8748	116.004	114.439	0.000000
	8.616667	37.6474	-13.9084	116.17	114.605	0.000000
	8.633333	37.479	-13.9425	116.337	114.771	0.000000
	8.650000	37.3029	-13.971	116.504	114.938	0.000000
	8.666667	37.1268	-14.0035	116.67	115.104	0.000000
	8.683333	36.9705	-14.0346	116.837	115.271	0.000000
	8.700000	36.8144	-14.0644	117.004	115.437	0.000000
	8.716667	36.6486	-14.0945	117.17	115.604	0.000000
	8.733333	36.4854	-14.1258	117.337	115.77	0.000000
	8.750000	36.3237	-14.161	117.504	115.937	0.000000
	8.766667	36.1736	-14.1917	117.67	116.103	0.000000
	8.783333	36.0387	-14.2246	117.837	116.269	0.000000
	8.800000	35.9154	-14.2537	118.004	116.435	0.000000
	8.816667	35.8023	-14.28	118.17	116.601	0.000000
	8.833333	35.6964	-14.3155	118.337	116.769	0.000000
	8.850000	35.5921	-14.3465	118.504	116.935	0.000000
	8.866667	35.4811	-14.3758	118.67	117.101	0.000000
	8.883333	35.3763	-14.4081	118.837	117.267	0.000000
	8.900000	35.2619	-14.4422	119.004	117.435	0.000000
	8.916667	35.1484	-14.476	119.17	117.603	0.000000
	8.933333	35.0317	-14.5073	119.337	117.769	0.000000
	8.950000	34.9116	-14.5398	119.504	117.935	0.000000
	8.966667	34.7915	-14.5693	119.67	118.102	0.000000
	8.983333	34.6791	-14.5991	119.837	118.269	0.000000
	9.000000	34.593	-14.6306	120.004	118.435	0.000000
	9.016667	34.4999	-14.6624	120.17	118.602	0.000000
	9.033333	34.4098	-14.6927	120.337	118.768	0.000000
	9.050000	34.3397	-14.7267	120.504	118.935	0.000000
	9.066667	34.2681	-14.759	120.67	119.101	0.000000
	9.083333	34.1875	-14.7937	120.837	119.267	0.000000
	9.100000	34.1026	-14.8219	121.004	119.435	0.000000
	9.116667	34.0186	-14.8542	121.17	119.6	0.000000
	9.133333	33.9468	-14.8876	121.337	119.767	0.000000
	9.150000	33.8847	-14.9162	121.504	119.934	0.000000
	9.166667	33.8268	-14.9487	121.67	120.1	0.000000
	9.183333	33.7652	-14.9807	121.837	120.267	0.000000
	9.200000	33.7063	-15.0134	122.004	120.434	0.000000
	9.216667	33.6407	-15.0437	122.17	120.6	0.000000
	9.233333	33.5816	-15.0711	122.337	120.767	0.000000
	9.250000	33.5256	-15.104	122.504	120.933	0.000000
	9.266667	33.4775	-15.14	122.67	121.099	0.000000
	9.283333	33.4459	-15.1704	122.837	121.265	0.000000
	9.300000	33.4231	-15.1991	123.004	121.431	0.000000
	9.316667	33.3998	-15.232	123.17	121.597	0.000000
	9.333333	33.3755	-15.2661	123.337	121.763	0.000000
	9.350000	33.3369	-15.2961	123.504	121.93	0.000000
	9.366667	33.3079	-15.3316	123.67	122.097	0.000000
	9.383333	33.2869	-15.3608	123.837	122.263	0.000000
	9.400000	33.2693	-15.3916	124.004	122.428	0.000000
	9.416667	33.2555	-15.4254	124.17	122.595	0.000000
	9.433333	33.2394	-15.4576	124.337	122.761	0.000000
	9.450000	33.2132	-15.4907	124.504	122.928	0.000000
	9.466667	33.1755	-15.5217	124.67	123.095	0.000000
	9.483333	33.1415	-15.5564	124.837	123.261	0.000000
	9.500000	33.1076	-15.588	125.004	123.426	0.000000
	9.516667	33.0724	-15.618	125.17	123.593	0.000000
	9.533333	33.0403	-15.6626	125.337	123.761	0.000000
	9.550000	33.0149	-15.6907	125.504	123.926	0.000000
	9.566667	33.0007	-15.716	125.67	124.092	0.000000
	9.583333	32.992	-15.7455	125.837	124.258	0.000000
	9.600000	32.9955	-15.7782	126.004	124.425	0.000000
	9.616667	32.9948	-15.8092	126.17	124.591	0.000000
	9.633333	32.9869	-15.8419	126.337	124.758	0.000000
	9.650000	32.9715	-15.876	126.504	124.926	0.000000
	9.666667	32.9524	-15.9061	126.67	125.093	0.000000
	9.683333	32.9364	-15.94	126.837	125.259	0.000000
	9.700000	32.9226	-15.9713	127.004	125.424	0.000000
	9.716667	32.9065	-16.0016	127.17	125.59	0.000000
	9.733333	32.8862	-16.0339	127.337	125.757	0.000000
	9.750000	32.8705	-16.0685	127.504	125.922	0.000000
	9.766667	32.8517	-16.1001	127.67	126.089	0.000000
	9.783333	32.8379	-16.1289	127.837	126.255	0.000000
	9.800000	32.826	-16.164	128.004	126.422	0.000000
	9.816667	32.816	-16.1929	128.17	126.589	0.000000
	9.833333	32.8111	-16.2253	128.337	126.756	0.000000
	9.850000	32.8029	-16.2636	128.504	126.922	0.000000
	9.866667	32.7959	-16.2942	128.67	127.089	0.000000
	9.883333	32.7872	-16.3224	128.837	127.255	0.000000
	9.900000	32.786	-16.3548	129.004	127.421	0.000000
	9.916667	32.7868	-16.3883	129.17	127.589	0.000000
	9.933333	32.7756	-16.4232	129.337	127.755	0.000000
	9.950000	32.7519	-16.4535	129.504	127.922	0.000000
	9.966667	32.7314	-16.4868	129.67	128.089	0.000000
	9.983333	32.7177	-16.5204	129.837	128.255	0.000000
	10	32.7117	-16.553	130.004	128.422	0.000000
	10.0167	32.7138	-16.5841	130.17	128.588	0.000000
	10.0333	32.7173	-16.6136	130.337	128.755	0.000000
	10.05	32.7195	-16.6462	130.504	128.921	0.000000
	10.0667	32.7165	-16.6783	130.67	129.087	0.000000
	10.0833	32.7108	-16.7129	130.837	129.254	0.000000
	10.1	32.7031	-16.7451	131.004	129.421	0.000000
	10.1167	32.7003	-16.7783	131.17	129.586	0.000000
	10.1333	32.6855	-16.8132	131.337	129.753	0.000000
	10.15	32.6671	-16.8414	131.504	129.919	0.000000
	10.1667	32.6391	-16.8762	131.67	130.085	0.000000
	10.1833	32.6207	-16.907	131.837	130.251	0.000000
	10.2	32.6274	-16.939	132.004	130.418	0.000000
	10.2167	32.6432	-16.9723	132.17	130.585	0.000000
	10.2333	32.6599	-17.0049	132.337	130.751	0.000000
	10.25	32.6739	-17.0368	132.504	130.918	0.000000
	10.2667	32.6808	-17.0724	132.67	131.085	0.000000
	10.2833	32.6875	-17.1053	132.837	131.252	0.000000
	10.3	32.6986	-17.135	133.004	131.418	0.000000
	10.3167	32.706	-17.1673	133.17	131.584	0.000000
	10.3333	32.7139	-17.2008	133.337	131.751	0.000000
	10.35	32.7221	-17.2347	133.504	131.916	0.000000
	10.3667	32.7241	-17.2659	133.67	132.084	0.000000
	10.3833	32.7268	-17.3004	133.837	132.252	0.000000
	10.4	32.7242	-17.3296	134.004	132.417	0.000000
	10.4167	32.7278	-17.363	134.17	132.583	0.000000
	10.4333	32.7265	-17.3959	134.337	132.749	0.000000
	10.45	32.7263	-17.4284	134.504	132.915	0.000000
	10.4667	32.7195	-17.4619	134.67	133.082	0.000000
	10.4833	32.7146	-17.4962	134.837	133.247	0.000000
	10.5	32.7032	-17.5297	135.004	133.414	0.000000
	10.5167	32.6996	-17.5608	135.17	133.58	0.000000
	10.5333	32.6968	-17.5954	135.337	133.747	0.000000
	10.55	32.6969	-17.6251	135.504	133.913	0.000000
	10.5667	32.698	-17.6567	135.67	134.08	0.000000
	10.5833	32.704	-17.6921	135.837	134.246	0.000000
	10.6	32.7136	-17.7253	136.004	134.411	0.000000
	10.6167	32.7131	-17.7589	136.17	134.577	0.000000
	10.6333	32.71	-17.7885	136.337	134.744	0.000000
	10.65	32.7036	-17.8221	136.504	134.911	0.000000
	10.6667	32.7044	-17.8555	136.67	135.078	0.000000
	10.6833	32.7064	-17.8893	136.837	135.243	0.000000
	10.7	32.697	-17.9236	137.004	135.41	0.000000
	10.7167	32.6883	-17.9546	137.17	135.577	0.000000
	10.7333	32.6844	-17.9862	137.337	135.744	0.000000
	10.75	32.6871	-18.022	137.504	135.91	0.000000
	10.7667	32.6967	-18.0541	137.67	136.078	0.000000
	10.7833	32.7002	-18.0909	137.837	136.244	0.000000
	10.8	32.7008	-18.1191	138.004	136.41	0.000000
	10.8167	32.7062	-18.1514	138.17	136.578	0.000000
	10.8333	32.7108	-18.1872	138.337	136.745	0.000000
	10.85	32.7209	-18.2199	138.504	136.912	0.000000
	10.8667	32.7303	-18.2531	138.67	137.079	0.000000
	10.8833	32.7353	-18.2842	138.837	137.245	0.000000
	10.9	32.737	-18.3173	139.004	137.412	0.000000
	10.9167	32.7407	-18.3545	139.17	137.579	0.000000
	10.9333	32.74	-18.3839	139.337	137.746	0.000000
	10.95	32.7396	-18.4166	139.504	137.912	0.000000
	10.9667	32.7449	-18.4517	139.67	138.078	0.000000
	10.9833	32.7481	-18.4823	139.837	138.245	0.000000
	11	32.7525	-18.5146	140.004	138.413	0.000000
	11.0167	32.7557	-18.5509	140.17	138.579	0.000000
	11.0333	32.7541	-18.5842	140.337	138.745	0.000000
	11.05	32.7532	-18.6173	140.504	138.912	0.000000
	11.0667	32.7511	-18.6488	140.67	139.078	0.000000
	11.0833	32.7468	-18.6838	140.837	139.245	0.000000
	11.1	32.7459	-18.7132	141.004	139.411	0.000000
	11.1167	32.7464	-18.7492	141.17	139.578	0.000000
	11.1333	32.7484	-18.7926	141.337	139.745	0.000000
	11.15	32.7429	-18.8323	141.504	139.912	0.000000
	11.1667	32.7469	-18.8624	141.67	140.078	0.000000
	11.1833	32.7491	-18.8895	141.837	140.245	0.000000
	11.2	32.7389	-18.9206	142.004	140.411	0.000000
	11.2167	32.7354	-18.9482	142.17	140.578	0.000000
	11.2333	32.7355	-18.9805	142.337	140.745	0.000000
	11.25	32.7249	-19.0185	142.504	140.912	0.000000
	11.2667	32.7197	-19.05	142.67	141.078	0.000000
	11.2833	32.7297	-19.0838	142.837	141.245	0.000000
	11.3	32.7353	-19.1173	143.004	141.411	0.000000
	11.3167	32.7406	-19.1503	143.17	141.578	0.000000
	11.3333	32.7508	-19.1845	143.337	141.745	0.000000
	11.35	32.7662	-19.2183	143.504	141.91	0.000000
	11.3667	32.7818	-19.247	143.67	142.076	0.000000
	11.3833	32.7862	-19.2801	143.837	142.243	0.000000
	11.4	32.7928	-19.3173	144.004	142.409	0.000000
	11.4167	32.7967	-19.3495	144.17	142.576	0.000000
	11.4333	32.8012	-19.3796	144.337	142.743	0.000000
	11.45	32.8032	-19.413	144.504	142.91	0.000000
	11.4667	32.8048	-19.4495	144.67	143.076	0.000000
	11.4833	32.8078	-19.4839	144.837	143.243	0.000000
	11.5	32.8151	-19.5186	145.004	143.409	0.000000
	11.5167	32.8151	-19.5514	145.17	143.576	0.000000
	11.5333	32.8066	-19.5838	145.337	143.742	0.000000
	11.55	32.7998	-19.6171	145.504	143.907	0.000000
	11.5667	32.8038	-19.6526	145.67	144.074	0.000000
	11.5833	32.8141	-19.6858	145.837	144.241	0.000000
	11.6	32.8276	-19.7199	146.004	144.408	0.000000
	11.6167	32.8439	-19.7536	146.17	144.575	0.000000
	11.6333	32.8574	-19.7862	146.337	144.743	0.000000
	11.65	32.866	-19.819	146.504	144.912	0.000000
	11.6667	32.8702	-19.8522	146.67	145.079	0.000000
	11.6833	32.866	-19.8894	146.837	145.247	0.000000
	11.7	32.8577	-19.9215	147.004	145.413	0.000000
	11.7167	32.8516	-19.953	147.17	145.581	0.000000
	11.7333	32.8523	-19.9886	147.337	145.747	0.000000
	11.75	32.8469	-20.023	147.504	145.913	0.000000
	11.7667	32.8534	-20.0573	147.67	146.08	0.000000
	11.7833	32.8659	-20.0926	147.837	146.248	0.000000
	11.8	32.873	-20.1252	148.004	146.415	0.000000
	11.8167	32.8832	-20.1581	148.17	146.581	0.000000
	11.8333	32.8973	-20.1908	148.337	146.748	0.000000
	11.85	32.9048	-20.2217	148.504	146.914	0.000000
	11.8667	32.9051	-20.2564	148.67	147.081	0.000000
	11.8833	32.906	-20.2923	148.837	147.247	0.000000
	11.9	32.9105	-20.3247	149.004	147.414	0.000000
	11.9167	32.9227	-20.3622	149.17	147.581	0.000000
	11.9333	32.9446	-20.3955	149.337	147.747	0.000000
	11.95	32.9614	-20.4276	149.504	147.915	0.000000
	11.9667	32.9721	-20.4637	149.67	148.082	0.000000
	11.9833	32.9807	-20.4969	149.837	148.248	0.000000
3) DSC Isothermal
	12	32.9294	-20.4969	150	148.414	0.000000
	12.0167	32.8674	-20.4969	150	148.581	0.000000
	12.0333	32.324	-20.4969	150	148.734	0.000000
	12.05	31.7249	-20.4969	150	148.857	0.000000
	12.0667	31.3136	-20.4969	150	148.948	0.000000
	12.0833	30.9359	-20.4969	150	149.012	0.000000
	12.1	30.5063	-20.4969	150	149.056	0.000000
	12.1167	30.0327	-20.4969	150	149.085	0.000000
	12.1333	29.5566	-20.4969	150	149.104	0.000000
	12.15	29.1102	-20.4969	150	149.117	0.000000
	12.1667	28.7226	-20.4969	150	149.126	0.000000
	12.1833	28.4005	-20.4969	150	149.13	0.000000
	12.2	28.1378	-20.4969	150	149.134	0.000000
	12.2167	27.9282	-20.4969	150	149.135	0.000000
	12.2333	27.7666	-20.4969	150	149.136	0.000000
	12.25	27.6374	-20.4969	150	149.137	0.000000
	12.2667	27.5338	-20.4969	150	149.136	0.000000
	12.2833	27.4527	-20.4969	150	149.136	0.000000
	12.3	27.3874	-20.4969	150	149.136	0.000000
	12.3167	27.3355	-20.4969	150	149.135	0.000000
	12.3333	27.2918	-20.4969	150	149.134	0.000000
	12.35	27.257	-20.4969	150	149.133	0.000000
	12.3667	27.2313	-20.4969	150	149.13	0.000000
	12.3833	27.2077	-20.4969	150	149.127	0.000000
	12.4	27.1875	-20.4969	150	149.126	0.000000
	12.4167	27.1718	-20.4969	150	149.125	0.000000
	12.4333	27.1583	-20.4969	150	149.124	0.000000
	12.45	27.1433	-20.4969	150	149.122	0.000000
	12.4667	27.1333	-20.4969	150	149.121	0.000000
	12.4833	27.127	-20.4969	150	149.12	0.000000
	12.5	27.1184	-20.4969	150	149.119	0.000000
	12.5167	27.1114	-20.4969	150	149.118	0.000000
	12.5333	27.1032	-20.4969	150	149.118	0.000000
	12.55	27.0963	-20.4969	150	149.116	0.000000
	12.5667	27.0907	-20.4969	150	149.115	0.000000
	12.5833	27.0868	-20.4969	150	149.114	0.000000
	12.6	27.0835	-20.4969	150	149.113	0.000000
	12.6167	27.08	-20.4969	150	149.111	0.000000
	12.6333	27.0757	-20.4969	150	149.11	0.000000
	12.65	27.0719	-20.4969	150	149.109	0.000000
	12.6667	27.0672	-20.4969	150	149.108	0.000000
	12.6833	27.0641	-20.4969	150	149.107	0.000000
	12.7	27.062	-20.4969	150	149.106	0.000000
	12.7167	27.0595	-20.4969	150	149.105	0.000000
	12.7333	27.0569	-20.4969	150	149.104	0.000000
	12.75	27.0526	-20.4969	150	149.103	0.000000
	12.7667	27.053	-20.4969	150	149.101	0.000000
	12.7833	27.0502	-20.4969	150	149.1	0.000000
	12.8	27.0483	-20.4969	150	149.1	0.000000
	12.8167	27.0452	-20.4969	150	149.098	0.000000
	12.8333	27.0442	-20.4969	150	149.097	0.000000
	12.85	27.0442	-20.4969	150	149.097	0.000000
	12.8667	27.0429	-20.4969	150	149.095	0.000000
	12.8833	27.0408	-20.4969	150	149.094	0.000000
	12.9	27.0396	-20.4969	150	149.092	0.000000
	12.9167	27.0392	-20.4969	150	149.091	0.000000
[...]
	78.1333	24.9493	-5.043677	51.337	47.508	0.000000
	78.1667	25.0433	-5.094413	51.67	47.846	0.000000
	78.2	25.0937	-5.141726	52.004	48.183	0.000000
	78.2333	25.0405	-5.194821	52.337	48.522	0.000000
	78.2667	25.0601	-5.242843	52.67	48.859	0.000000
	78.3	25.1075	-5.292870	53.004	49.196	0.000000
	78.3333	25.1335	-5.344549	53.337	49.533	0.000000
	78.3667	25.2178	-5.394223	53.67	49.871	0.000000
	78.4	25.2904	-5.444604	54.004	50.208	0.000000
	78.4333	25.3343	-5.493924	54.337	50.545	0.000000
	78.4667	25.3372	-5.547019	54.67	50.882	0.000000
	78.5	25.3534	-5.597754	55.004	51.22	0.000000
	78.5333	25.406	-5.645186	55.337	51.557	0.000000
	78.5667	25.4585	-5.700050	55.67	51.895	0.000000
	78.6	25.5228	-5.749488	56.004	52.233	0.000000
	78.6333	25.5432	-5.799161	56.337	52.572	0.000000
	78.6667	25.5903	-5.852610	56.67	52.911	0.000000
	78.7	25.6936	-5.903228	57.004	53.249	0.000000
	78.7333	25.7126	-5.952665	57.337	53.585	0.000000
	78.7667	25.7391	-6.006350	57.67	53.925	0.000000
	78.8	25.7951	-6.059563	58.004	54.263	0.000000
	78.8333	25.8831	-6.110770	58.337	54.601	0.000000
	78.8667	25.9856	-6.161034	58.67	54.94	0.000000
	78.9	26.0409	-6.211179	59.004	55.279	0.000000
	78.9333	26.0727	-6.262268	59.337	55.615	0.000000
	78.9667	26.099	-6.316307	59.67	55.952	0.000000
	79	26.1521	-6.366335	60.004	56.289	0.000000
	79.0333	26.2201	-6.419194	60.337	56.628	0.000000
	79.0667	26.2736	-6.469103	60.67	56.967	0.000000
	79.1	26.2757	-6.524558	61.004	57.304	0.000000
	79.1333	26.3195	-6.575411	61.337	57.642	0.000000
	79.1667	26.3826	-6.625674	61.67	57.98	0.000000
	79.2	26.4981	-6.677118	62.004	58.318	0.000000
	79.2333	26.6103	-6.731157	62.337	58.656	0.000000
	79.2667	26.6761	-6.779768	62.67	58.993	0.000000
	79.3	26.7361	-6.836285	63.004	59.329	0.000000
	79.3333	26.8415	-6.884306	63.337	59.667	0.000000
	79.3667	26.8731	-6.937401	63.67	60.005	0.000000
	79.4	26.9274	-6.992856	64.004	60.342	0.000000
	79.4333	27.0265	-7.041940	64.337	60.679	0.000000
	79.4667	27.0786	-7.097395	64.67	61.017	0.000000
	79.5	27.1459	-7.148838	65.004	61.354	0.000000
	79.5333	27.2071	-7.202051	65.337	61.692	0.000000
	79.5667	27.3453	-7.252550	65.67	62.031	0.000000
	79.6	27.4635	-7.307769	66.004	62.368	0.000000
	79.6333	27.5376	-7.359330	66.337	62.707	0.000000
	79.6667	27.5921	-7.414195	66.67	63.045	0.000000
	79.7	27.6294	-7.463515	67.004	63.382	0.000000
	79.7333	27.7262	-7.517200	67.337	63.72	0.000000
	79.7667	27.8303	-7.570413	67.67	64.059	0.000000
	79.8	27.9158	-7.625514	68.004	64.397	0.000000
	79.8333	28.0162	-7.677665	68.337	64.737	0.000000
	79.8667	28.1062	-7.730524	68.67	65.075	0.000000
	79.9	28.202	-7.784445	69.004	65.413	0.000000
	79.9333	28.3038	-7.839192	69.337	65.751	0.000000
	79.9667	28.4177	-7.887803	69.67	66.087	0.000000
	80	28.4999	-7.944320	70.004	66.426	0.000000
	80.0333	28.6015	-7.998123	70.337	66.764	0.000000
	80.0667	28.7112	-8.050628	70.67	67.1	0.000000
	80.1	28.8257	-8.104785	71.004	67.439	0.000000
	80.1333	28.9514	-8.158234	71.337	67.776	0.000000
	80.1667	29.1018	-8.212037	71.67	68.114	0.000000
	80.2	29.2063	-8.265840	72.004	68.45	0.000000
	80.2333	29.3249	-8.319407	72.337	68.788	0.000000
	80.2667	29.4214	-8.369788	72.67	69.126	0.000000
	80.3	29.5342	-8.428547	73.004	69.462	0.000000
	80.3333	29.6535	-8.481524	73.337	69.8	0.000000
	80.3667	29.7875	-8.536271	73.67	70.137	0.000000
	80.4	29.9084	-8.589248	74.004	70.475	0.000000
	80.4333	30.0264	-8.643523	74.337	70.813	0.000000
	80.4667	30.1671	-8.698388	74.67	71.151	0.000000
	80.5	30.3243	-8.751837	75.004	71.489	0.000000
	80.5333	30.5185	-8.805640	75.337	71.826	0.000000
	80.5667	30.6871	-8.858499	75.67	72.165	0.000000
	80.6	30.8144	-8.914072	76.004	72.504	0.000000
	80.6333	30.9655	-8.967521	76.337	72.842	0.000000
	80.6667	31.1094	-9.022976	76.67	73.18	0.000000
	80.7	31.2225	-9.077723	77.004	73.519	0.000000
	80.7333	31.3721	-9.131880	77.337	73.856	0.000000
	80.7667	31.5069	-9.188042	77.67	74.194	0.000000
	80.8	31.6728	-9.241963	78.004	74.532	0.000000
	80.8333	31.8098	-9.296946	78.337	74.87	0.000000
	80.8667	31.9702	-9.360424	78.67	75.207	0.000000
	80.9	32.1491	-9.409154	79.004	75.544	0.000000
	80.9333	32.3048	-9.460597	79.337	75.882	0.000000
	80.9667	32.4393	-9.514636	79.67	76.219	0.000000
	81	32.5772	-9.571389	80.004	76.557	0.000000
	81.0333	32.7374	-9.626018	80.337	76.894	0.000000
	81.0667	32.8976	-9.685602	80.67	77.231	0.000000
	81.1	33.0843	-9.737399	81.004	77.569	0.000000
	81.1333	33.2596	-9.790966	81.337	77.905	0.000000
	81.1667	33.44	-9.846893	81.67	78.244	0.000000
	81.2	33.6379	-9.899870	82.004	78.58	0.000000
	81.2333	33.8372	-9.959219	82.337	78.918	0.000000
	81.2667	34.0318	-10.0122	82.67	79.255	0.000000
	81.3	34.258	-10.0705	83.004	79.592	0.000000
	81.3333	34.4548	-10.1252	83.337	79.929	0.000000
	81.3667	34.6666	-10.1829	83.67	80.266	0.000000
	81.4	34.8844	-10.2361	84.004	80.605	0.000000
	81.4333	35.1228	-10.2942	84.337	80.942	0.000000
	81.4667	35.3526	-10.3487	84.67	81.279	0.000000
	81.5	35.5508	-10.4063	85.004	81.616	0.000000
	81.5333	35.7248	-10.4596	85.337	81.954	0.000000
	81.5667	35.9275	-10.5172	85.67	82.292	0.000000
	81.6	36.2302	-10.5726	86.004	82.629	0.000000
	81.6333	36.4763	-10.6282	86.337	82.966	0.000000
	81.6667	36.7032	-10.6847	86.67	83.303	0.000000
	81.7	36.9344	-10.742	87.004	83.641	0.000000
	81.7333	37.1607	-10.7961	87.337	83.977	0.000000
	81.7667	37.397	-10.855	87.67	84.315	0.000000
	81.8	37.6611	-10.928	88.004	84.652	0.000000
	81.8333	37.8801	-10.9746	88.337	84.989	0.000000
	81.8667	38.0422	-11.0255	88.67	85.326	0.000000
	81.9	38.2229	-11.0792	89.004	85.663	0.000000
	81.9333	38.3794	-11.1363	89.337	85.999	0.000000
	81.9667	38.4996	-11.1924	89.67	86.336	0.000000
	82	38.6006	-11.2504	90.004	86.673	0.000000
	82.0333	38.6818	-11.3055	90.337	87.01	0.000000
	82.0667	38.7452	-11.3641	90.67	87.348	0.000000
	82.1	38.7436	-11.4211	91.004	87.686	0.000000
	82.1333	38.6945	-11.4767	91.337	88.022	0.000000
	82.1667	38.5863	-11.5379	91.67	88.36	0.000000
	82.2	38.4701	-11.5934	92.004	88.698	0.000000
	82.2333	38.3255	-11.6521	92.337	89.035	0.000000
	82.2667	38.1412	-11.7057	92.67	89.374	0.000000
	82.3	37.911	-11.7621	93.004	89.713	0.000000
	82.3333	37.6215	-11.8209	93.337	90.049	0.000000
	82.3667	37.3198	-11.8768	93.67	90.389	0.000000
	82.4	36.9766	-11.9362	94.004	90.727	0.000000
	82.4333	36.6176	-11.9933	94.337	91.066	0.000000
	82.4667	36.2595	-12.0509	94.67	91.404	0.000000
	82.5	35.84	-12.1078	95.004	91.742	0.000000
	82.5333	35.4271	-12.1651	95.337	92.081	0.000000
	82.5667	35.018	-12.2227	95.67	92.422	0.000000
	82.6	34.5788	-12.2801	96.004	92.761	0.000000
	82.6333	34.1706	-12.3376	96.337	93.099	0.000000
	82.6667	33.7843	-12.3949	96.67	93.437	0.000000
	82.7	33.4444	-12.4523	97.004	93.774	0.000000
	82.7333	33.1257	-12.5088	97.337	94.111	0.000000
	82.7667	32.8418	-12.5685	97.67	94.449	0.000000
	82.8	32.5707	-12.6267	98.004	94.788	0.000000
	82.8333	32.3219	-12.6841	98.337	95.125	0.000000
	82.8667	32.0775	-12.7445	98.67	95.462	0.000000
	82.9	31.8743	-12.803	99.004	95.799	0.000000
	82.9333	31.7426	-12.8615	99.337	96.138	0.000000
	82.9667	31.6216	-12.9172	99.67	96.474	0.000000
	83	31.4764	-12.9762	100.004	96.811	0.000000
	83.0333	31.3564	-13.0347	100.337	97.148	0.000000
	83.0667	31.269	-13.0927	100.67	97.485	0.000000
	83.1	31.1861	-13.1496	101.004	97.821	0.000000
	83.1333	31.1355	-13.2124	101.337	98.159	0.000000
	83.1667	31.0635	-13.2686	101.67	98.495	0.000000
	83.2	30.9936	-13.329	102.004	98.833	0.000000
	83.2333	30.9353	-13.3868	102.337	99.171	0.000000
	83.2667	30.8753	-13.4472	102.67	99.507	0.000000
	83.3	30.8279	-13.5067	103.004	99.845	0.000000
	83.3333	30.8188	-13.5619	103.337	100.181	0.000000
	83.3667	30.7899	-13.626	103.67	100.521	0.000000
	83.4	30.7696	-13.6841	104.004	100.858	0.000000
	83.4333	30.7594	-13.7799	104.337	101.196	0.000000
	83.4667	30.7257	-13.8553	104.67	101.533	0.000000
	83.5	30.6728	-13.9221	105.004	101.871	0.000000
	83.5333	30.6472	-13.9806	105.337	102.207	0.000000
	83.5667	30.6319	-14.0433	105.67	102.544	0.000000
	83.6	30.582	-14.1039	106.004	102.881	0.000000
	83.6333	30.569	-14.164	106.337	103.218	0.000000
	83.6667	30.5788	-14.2263	106.67	103.554	0.000000
	83.7	30.5833	-14.2853	107.004	103.891	0.000000
	83.7333	30.5667	-14.3455	107.337	104.228	0.000000
	83.7667	30.59	-14.4063	107.67	104.565	0.000000
	83.8	30.5944	-14.4653	108.004	104.901	0.000000
	83.8333	30.5737	-14.528	108.337	105.238	0.000000
	83.8667	30.578	-14.5842	108.67	105.575	0.000000
	83.9	30.579	-14.6475	109.004	105.912	0.000000
	83.9333	30.583	-14.7062	109.337	106.248	0.000000
	83.9667	30.5997	-14.7649	109.67	106.586	0.000000
	84	30.6404	-14.826	110.004	106.921	0.000000
	84.0333	30.6374	-14.8864	110.337	107.257	0.000000
	84.0667	30.6092	-14.9435	110.67	107.594	0.000000
	84.1	30.5872	-15.0066	111.004	107.932	0.000000
	84.1333	30.569	-15.065	111.337	108.27	0.000000
	84.1667	30.62	-15.1277	111.67	108.606	0.000000
	84.2	30.6502	-15.1904	112.004	108.945	0.000000
	84.2333	30.703	-15.2483	112.337	109.282	0.000000
	84.2667	30.7528	-15.3114	112.67	109.619	0.000000
	84.3	30.7693	-15.3721	113.004	109.956	0.000000
	84.3333	30.7442	-15.4293	113.337	110.293	0.000000
	84.3667	30.7392	-15.493	113.67	110.631	0.000000
	84.4	30.7723	-15.553	114.004	110.967	0.000000
	84.4333	30.7805	-15.611	114.337	111.304	0.000000
	84.4667	30.7752	-15.6777	114.67	111.641	0.000000
	84.5	30.7955	-15.7382	115.004	111.981	0.000000
	84.5333	30.833	-15.7959	115.337	112.318	0.000000
	84.5667	30.8479	-15.8529	115.67	112.654	0.000000
	84.6	30.8592	-15.9139	116.004	112.991	0.000000
	84.6333	30.8969	-15.9717	116.337	113.328	0.000000
	84.6667	30.9103	-16.0367	116.67	113.665	0.000000
	84.7	30.8861	-16.105	117.004	114.003	0.000000
	84.7333	30.9113	-16.1663	117.337	114.339	0.000000
	84.7667	30.9776	-16.2269	117.67	114.676	0.000000
	84.8	30.9998	-16.2903	118.004	115.012	0.000000
	84.8333	31.031	-16.35	118.337	115.348	0.000000
	84.8667	31.0973	-16.4119	118.67	115.685	0.000000
	84.9	31.1343	-16.475	119.004	116.021	0.000000
	84.9333	31.1411	-16.5347	119.337	116.358	0.000000
	84.9667	31.1483	-16.5996	119.67	116.694	0.000000
	85	31.1448	-16.6604	120.004	117.03	0.000000
	85.0333	31.1913	-16.7218	120.337	117.368	0.000000
	85.0667	31.1988	-16.7826	120.67	117.705	0.000000
	85.1	31.2045	-16.8455	121.004	118.042	0.000000
	85.1333	31.2547	-16.9101	121.337	118.38	0.000000
	85.1667	31.3057	-16.9732	121.67	118.718	0.000000
	85.2	31.3445	-17.0317	122.004	119.054	0.000000
	85.2333	31.3648	-17.0955	122.337	119.392	0.000000
	85.2667	31.3882	-17.1578	122.67	119.729	0.000000
	85.3	31.4031	-17.2173	123.004	120.065	0.000000
	85.3333	31.432	-17.282	123.337	120.402	0.000000
	85.3667	31.4414	-17.3445	123.67	120.738	0.000000
	85.4	31.4412	-17.4076	124.004	121.075	0.000000
	85.4333	31.4616	-17.4696	124.337	121.413	0.000000
	85.4667	31.5043	-17.534	124.67	121.748	0.000000
	85.5	31.5315	-17.5961	125.004	122.084	0.000000
	85.5333	31.5416	-17.6613	125.337	122.421	0.000000
	85.5667	31.5901	-17.7224	125.67	122.758	0.000000
	85.6	31.6092	-17.7839	126.004	123.095	0.000000
	85.6333	31.6223	-17.8501	126.337	123.432	0.000000
	85.6667	31.6423	-17.9088	126.67	123.768	0.000000
	85.7	31.6735	-17.972	127.004	124.104	0.000000
	85.7333	31.7334	-18.0345	127.337	124.439	0.000000
	85.7667	31.7868	-18.1012	127.67	124.775	0.000000
	85.8	31.8056	-18.167	128.004	125.111	0.000000
	85.8333	31.8402	-18.2278	128.337	125.448	0.000000
	85.8667	31.8595	-18.2911	128.67	125.784	0.000000
	85.9	31.8592	-18.357	129.004	126.121	0.000000
	85.9333	31.8669	-18.4184	129.337	126.458	0.000000
	85.9667	31.8955	-18.4817	129.67	126.794	0.000000
	86	31.9432	-18.5459	130.004	127.133	0.000000
	86.0333	31.9562	-18.6085	130.337	127.47	0.000000
	86.0667	31.984	-18.6752	130.67	127.807	0.000000
	86.1	32.0159	-18.7348	131.004	128.143	0.000000
	86.1333	32.0096	-18.8012	131.337	128.479	0.000000
	86.1667	31.9924	-18.8639	131.67	128.816	0.000000
	86.2	32.0144	-18.928	132.004	129.153	0.000000
	86.2333	32.0401	-18.9925	132.337	129.489	0.000000
	86.2667	32.0666	-19.055	132.67	129.827	0.000000
	86.3	32.0913	-19.1211	133.004	130.162	0.000000
	86.3333	32.1046	-19.1841	133.337	130.5	0.000000
	86.3667	32.1392	-19.2491	133.67	130.836	0.000000
	86.4	32.1815	-19.3149	134.004	131.173	0.000000
	86.4333	32.2029	-19.3766	134.337	131.512	0.000000
	86.4667	32.2609	-19.4435	134.67	131.849	0.000000
	86.5	32.3162	-19.5051	135.004	132.187	0.000000
	86.5333	32.3536	-19.571	135.337	132.522	0.000000
	86.5667	32.3896	-19.6364	135.67	132.857	0.000000
	86.6	32.41	-19.7006	136.004	133.193	0.000000
	86.6333	32.4601	-19.7643	136.337	133.53	0.000000
	86.6667	32.5144	-19.8271	136.67	133.866	0.000000
	86.7	32.5519	-19.8971	137.004	134.203	0.000000
	86.7333	32.5897	-19.9611	137.337	134.54	0.000000
	86.7667	32.6095	-20.0269	137.67	134.876	0.000000
	86.8	32.6188	-20.0927	138.004	135.212	0.000000
	86.8333	32.6275	-20.1588	138.337	135.549	0.000000
	86.8667	32.6362	-20.2302	138.67	135.886	0.000000
	86.9	32.6639	-20.2876	139.004	136.223	0.000000
	86.9333	32.7019	-20.3499	139.337	136.56	0.000000
	86.9667	32.7368	-20.4162	139.67	136.896	0.000000
	87	32.7875	-20.4814	140.004	137.233	0.000000
	87.0333	32.8561	-20.5498	140.337	137.569	0.000000
	87.0667	32.8859	-20.6135	140.67	137.907	0.000000
	87.1	32.9156	-20.6798	141.004	138.244	0.000000
	87.1333	32.9565	-20.7439	141.337	138.581	0.000000
	87.1667	32.9931	-20.8091	141.67	138.917	0.000000
	87.2	33.0309	-20.879	142.004	139.254	0.000000
	87.2333	33.0581	-20.9453	142.337	139.591	0.000000
	87.2667	33.1096	-21.0067	142.67	139.927	0.000000
	87.3	33.1415	-21.0783	143.004	140.263	0.000000
	87.3333	33.1751	-21.1403	143.337	140.599	0.000000
	87.3667	33.2009	-21.2084	143.67	140.937	0.000000
	87.4	33.2534	-21.273	144.004	141.273	0.000000
	87.4333	33.2808	-21.3377	144.337	141.609	0.000000
	87.4667	33.3225	-21.4057	144.67	141.946	0.000000
	87.5	33.3553	-21.4692	145.004	142.282	0.000000
	87.5333	33.3861	-21.5377	145.337	142.618	0.000000
	87.5667	33.4293	-21.6052	145.67	142.954	0.000000
	87.6	33.4522	-21.6683	146.004	143.291	0.000000
	87.6333	33.4721	-21.7351	146.337	143.627	0.000000
	87.6667	33.5005	-21.8031	146.67	143.964	0.000000
	87.7	33.5559	-21.8699	147.004	144.301	0.000000
	87.7333	33.6109	-21.9357	147.337	144.637	0.000000
	87.7667	33.6369	-22.0044	147.67	144.973	0.000000
	87.8	33.6804	-22.069	148.004	145.311	0.000000
	87.8333	33.6925	-22.1366	148.337	145.646	0.000000
	87.8667	33.7087	-22.2008	148.67	145.983	0.000000
	87.9	33.7313	-22.2713	149.004	146.321	0.000000
	87.9333	33.7857	-22.3385	149.337	146.658	0.000000
	87.9667	33.8334	-22.4075	149.67	146.994	0.000000
	87.9833	33.8558	-22.4419	149.837	147.162	0.000000
11) DSC Isothermal
	88	33.8145	-22.4419	150	147.331	0.000000
	88.0167	33.7377	-22.4419	150	147.499	0.000000
	88.0333	33.0649	-22.4419	150	147.652	0.000000
	88.05	32.3912	-22.4419	150	147.773	0.000000
	88.0667	31.9844	-22.4419	150	147.862	0.000000
	88.0833	31.6217	-22.4419	150	147.922	0.000000
	88.1	31.2038	-22.4419	150	147.963	0.000000
	88.1167	30.7477	-22.4419	150	147.99	0.000000
	88.1333	30.2999	-22.4419	150	148.007	0.000000
	88.15	29.9044	-22.4419	150	148.019	0.000000
	88.1667	29.5813	-22.4419	150	148.026	0.000000
	88.1833	29.3243	-22.4419	150	148.03	0.000000
	88.2	29.1281	-22.4419	150	148.035	0.000000
	88.2167	28.98	-22.4419	150	148.036	0.000000
	88.2333	28.8666	-22.4419	150	148.038	0.000000
	88.25	28.7851	-22.4419	150	148.039	0.000000
	88.2667	28.7229	-22.4419	150	148.039	0.000000
	88.2833	28.6775	-22.4419	150	148.04	0.000000
	88.3	28.6429	-22.4419	150	148.04	0.000000
	88.3167	28.6192	-22.4419	150	148.041	0.000000
	88.3333	28.6	-22.4419	150	148.041	0.000000
	88.35	28.5863	-22.4419	150	148.041	0.000000
	88.3667	28.5759	-22.4419	150	148.041	0.000000
	88.3833	28.5664	-22.4419	150	148.041	0.000000
	88.4	28.5613	-22.4419	150	148.042	0.000000
	88.4167	28.557	-22.4419	150	148.041	0.000000
	88.4333	28.5548	-22.4419	150	148.042	0.000000
	88.45	28.5515	-22.4419	150	148.041	0.000000
	88.4667	28.5472	-22.4419	150	148.041	0.000000
	88.4833	28.5449	-22.4419	150	148.041	0.000000
	88.5	28.5429	-22.4419	150	148.041	0.000000
	88.5167	28.5419	-22.4419	150	148.042	0.000000
	88.5333	28.5426	-22.4419	150	148.042	0.000000
	88.55	28.5406	-22.4419	150	148.043	0.000000
	88.5667	28.5389	-22.4419	150	148.042	0.000000
	88.5833	28.5389	-22.4419	150	148.042	0.000000
	88.6	28.5389	-22.4419	150	148.042	0.000000
	88.6167	28.5378	-22.4419	150	148.042	0.000000
	88.6333	28.5389	-22.4419	150	148.043	0.000000
	88.65	28.5376	-22.4419	150	148.042	0.000000
	88.6667	28.536	-22.4419	150	148.042	0.000000
	88.6833	28.5353	-22.4419	150	148.042	0.000000
	88.7	28.5364	-22.4419	150	148.043	0.000000
	88.7167	28.536	-22.4419	150	148.042	0.000000
	88.7333	28.5346	-22.4419	150	148.042	0.000000
	88.75	28.5341	-22.4419	150	148.042	0.000000
	88.7667	28.5336	-22.4419	150	148.042	0.000000
	88.7833	28.5344	-22.4419	150	148.043	0.000000
	88.8	28.5331	-22.4419	150	148.043	0.000000
	88.8167	28.5336	-22.4419	150	148.043	0.000000
	88.8333	28.5331	-22.4419	150	148.043	0.000000
	88.85	28.5336	-22.4419	150	148.042	0.000000
	88.8667	28.5346	-22.4419	150	148.042	0.000000
	88.8833	28.5341	-22.4419	150	148.042	0.000000
	88.9	28.5331	-22.4419	150	148.043	0.000000
	88.9167	28.5326	-22.4419	150	148.042	0.000000
	88.9333	28.5336	-22.4419	150	148.043	0.000000
	88.95	28.534	-22.4419	150	148.044	0.000000
	88.9667	28.5327	-22.4419	150	148.042	0.000000
	88.9833	28.5313	-22.4419	150	148.044	0.000000
	89	28.532	-22.4419	150	148.044	0.000000
	89.0167	28.5339	-22.4419	150	148.045	0.000000
	89.0333	28.5336	-22.4419	150	148.043	0.000000
	89.05	28.5326	-22.4419	150	148.043	0.000000
	89.0667	28.5354	-22.4419	150	148.042	0.000000
	89.0833	28.5362	-22.4419	150	148.043	0.000000
	89.1	28.5331	-22.4419	150	148.044	0.000000
	89.1167	28.5326	-22.4419	150	148.045	0.000000
	89.1333	28.5324	-22.4419	150	148.043	0.000000
	89.15	28.5328	-22.4419	150	148.043	0.000000
	89.1667	28.5324	-22.4419	150	148.044	0.000000
	89.1833	28.5316	-22.4419	150	148.043	0.000000
	89.2	28.5338	-22.4419	150	148.044	0.000000
	89.2167	28.5349	-22.4419	150	148.044	0.000000
	89.2333	28.5339	-22.4419	150	148.044	0.000000
	89.25	28.5337	-22.4419	150	148.043	0.000000
	89.2667	28.5328	-22.4419	150	148.043	0.000000
	89.2833	28.5351	-22.4419	150	148.043	0.000000
	89.3	28.5338	-22.4419	150	148.044	0.000000
	89.3167	28.5333	-22.4419	150	148.043	0.000000
	89.3333	28.5341	-22.4419	150	148.044	0.000000
	89.35	28.5339	-22.4419	150	148.043	0.000000
	89.3667	28.5337	-22.4419	150	148.043	0.000000
	89.3833	28.5344	-22.4419	150	148.042	0.000000
	89.4	28.534	-22.4419	150	148.042	0.000000
	89.4167	28.5338	-22.4419	150	148.043	0.000000
	89.4333	28.5339	-22.4419	150	148.044	0.000000
	89.45	28.5332	-22.4419	150	148.044	0.000000
	89.4667	28.5331	-22.4419	150	148.044	0.000000
	89.4833	28.5339	-22.4419	150	148.044	0.000000
	89.5	28.5338	-22.4419	150	148.044	0.000000
	89.5167	28.5344	-22.4419	150	148.044	0.000000
	89.5333	28.5344	-22.4419	150	148.044	0.000000
	89.55	28.5341	-22.4419	150	148.044	0.000000
	89.5667	28.5339	-22.4419	150	148.044	0.000000
	89.5833	28.5349	-22.4419	150	148.046	0.000000
	89.6	28.5357	-22.4419	150	148.045	0.000000
	89.6167	28.5352	-22.4419	150	148.044	0.000000
	89.6333	28.5344	-22.4419	150	148.044	0.000000
	89.65	28.5354	-22.4419	150	148.045	0.000000
	89.6667	28.5379	-22.4419	150	148.044	0.000000
	89.6833	28.5375	-22.4419	150	148.043	0.000000
	89.7	28.5382	-22.4419	150	148.044	0.000000
	89.7167	28.5377	-22.4419	150	148.043	0.000000
	89.7333	28.5375	-22.4419	150	148.044	0.000000
	89.75	28.5372	-22.4419	150	148.044	0.000000
	89.7667	28.5377	-22.4419	150	148.045	0.000000
	89.7833	28.5362	-22.4419	150	148.045	0.000000
	89.8	28.5372	-22.4419	150	148.045	0.000000
	89.8167	28.5377	-22.4419	150	148.044	0.000000
	89.8333	28.537	-22.4419	150	148.045	0.000000
	89.85	28.5364	-22.4419	150	148.045	0.000000
	89.8667	28.5362	-22.4419	150	148.044	0.000000
	89.8833	28.5363	-22.4419	150	148.044	0.000000
	89.9	28.5364	-22.4419	150	148.044	0.000000
	89.9167	28.5364	-22.4419	150	148.044	0.000000
	89.9333	28.537	-22.4419	150	148.043	0.000000
	89.95	28.5365	-22.4419	150	148.043	0.000000
	89.9667	28.5382	-22.4419	150	148.044	0.000000
	89.9833	28.539	-22.4419	150	148.044	0.000000